"cond" "subj" "trial" "pattern" "resp" "RT" "true_cat" "obs_cat" "learn"
"1" 1 1 1 5 0 1982 1 0 1
"2" 1 1 2 7 1 1906 1 1 1
"3" 1 1 3 3 1 1219 0 0 1
"4" 1 1 4 4 0 1422 0 1 1
"5" 1 1 5 2 0 721 0 1 1
"6" 1 1 6 1 0 708 0 1 1
"7" 1 1 7 6 0 1664 1 0 1
"8" 1 1 8 8 0 1960 1 0 1
"9" 1 1 9 2 0 1764 0 1 1
"10" 1 1 10 8 1 1930 1 1 1
"11" 1 1 11 5 0 1024 1 0 1
"12" 1 1 12 6 1 1116 1 1 1
"13" 1 1 13 4 0 1228 0 1 1
"14" 1 1 14 1 1 1804 0 0 1
"15" 1 1 15 3 1 2008 0 0 1
"16" 1 1 16 7 1 1493 1 1 1
"17" 1 1 17 2 1 860 0 0 1
"18" 1 1 18 4 1 1991 0 0 1
"19" 1 1 19 7 1 1774 1 1 1
"20" 1 1 20 3 0 1808 0 1 1
"21" 1 1 21 6 1 1587 1 1 1
"22" 1 1 22 1 1 1571 0 0 1
"23" 1 1 23 5 1 1519 1 1 1
"24" 1 1 24 8 0 1880 1 0 1
"25" 1 1 25 1 1 1134 0 0 1
"26" 1 1 26 6 0 1220 1 0 1
"27" 1 1 27 3 0 2332 0 1 1
"28" 1 1 28 4 0 1896 0 1 1
"29" 1 1 29 8 1 1405 1 1 1
"30" 1 1 30 7 1 849 1 1 1
"31" 1 1 31 2 1 794 0 0 1
"32" 1 1 32 5 1 698 1 1 1
"33" 1 1 33 5 1 548 1 1 1
"34" 1 1 34 1 1 2105 0 0 1
"35" 1 1 35 6 0 1771 1 0 1
"36" 1 1 36 8 1 1886 1 1 1
"37" 1 1 37 2 1 819 0 0 1
"38" 1 1 38 7 1 548 1 1 1
"39" 1 1 39 3 0 1704 0 1 1
"40" 1 1 40 4 0 1636 0 1 1
"41" 1 1 41 1 0 1636 0 1 1
"42" 1 1 42 4 1 1917 0 0 1
"43" 1 1 43 8 1 3516 1 1 1
"44" 1 1 44 6 0 1918 1 0 1
"45" 1 1 45 3 1 1804 0 0 1
"46" 1 1 46 2 1 663 0 0 1
"47" 1 1 47 7 1 572 1 1 1
"48" 1 1 48 5 1 2230 1 1 1
"49" 1 1 49 1 1 1132 0 0 1
"50" 1 1 50 6 1 2706 1 1 1
"51" 1 1 51 7 1 715 1 1 1
"52" 1 1 52 8 1 567 1 1 1
"53" 1 1 53 5 1 1175 1 1 1
"54" 1 1 54 3 1 1270 0 0 1
"55" 1 1 55 2 1 687 0 0 1
"56" 1 1 56 4 1 946 0 0 1
"57" 1 1 57 6 1 1194 1 1 1
"58" 1 1 58 7 1 1540 1 1 1
"59" 1 1 59 3 1 948 0 0 1
"60" 1 1 60 2 1 690 0 0 1
"61" 1 1 61 8 1 457 1 1 1
"62" 1 1 62 1 1 2018 0 0 1
"63" 1 1 63 5 1 1480 1 1 1
"64" 1 1 64 4 1 1328 0 0 1
"65" 1 2 1 5 0 1122 1 0 1
"66" 1 2 2 7 1 2143 1 1 1
"67" 1 2 3 3 1 2302 0 0 1
"68" 1 2 4 4 1 1875 0 0 1
"69" 1 2 5 2 1 1423 0 0 1
"70" 1 2 6 1 1 593 0 0 1
"71" 1 2 7 6 1 833 1 1 1
"72" 1 2 8 8 1 943 1 1 1
"73" 1 2 9 2 1 1588 0 0 1
"74" 1 2 10 8 1 767 1 1 1
"75" 1 2 11 5 1 1851 1 1 1
"76" 1 2 12 6 1 1215 1 1 1
"77" 1 2 13 4 1 1150 0 0 1
"78" 1 2 14 1 1 3103 0 0 1
"79" 1 2 15 3 1 915 0 0 1
"80" 1 2 16 7 1 803 1 1 1
"81" 1 2 17 2 1 1257 0 0 1
"82" 1 2 18 4 1 1006 0 0 1
"83" 1 2 19 7 1 769 1 1 1
"84" 1 2 20 3 1 1432 0 0 1
"85" 1 2 21 6 1 1407 1 1 1
"86" 1 2 22 1 1 994 0 0 1
"87" 1 2 23 5 1 895 1 1 1
"88" 1 2 24 8 1 2093 1 1 1
"89" 1 2 25 1 1 793 0 0 1
"90" 1 2 26 6 1 750 1 1 1
"91" 1 2 27 3 1 868 0 0 1
"92" 1 2 28 4 1 4479 0 0 1
"93" 1 2 29 8 1 747 1 1 1
"94" 1 2 30 7 1 548 1 1 1
"95" 1 2 31 2 1 711 0 0 1
"96" 1 2 32 5 1 932 1 1 1
"97" 1 2 33 5 1 1047 1 1 1
"98" 1 2 34 1 1 725 0 0 1
"99" 1 2 35 6 1 662 1 1 1
"100" 1 2 36 8 1 689 1 1 1
"101" 1 2 37 2 1 654 0 0 1
"102" 1 2 38 7 1 2679 1 1 1
"103" 1 2 39 3 1 765 0 0 1
"104" 1 2 40 4 1 1470 0 0 1
"105" 1 2 41 1 1 799 0 0 1
"106" 1 2 42 4 1 2271 0 0 1
"107" 1 2 43 8 1 646 1 1 1
"108" 1 2 44 6 1 1296 1 1 1
"109" 1 2 45 3 1 941 0 0 1
"110" 1 2 46 2 1 1931 0 0 1
"111" 1 2 47 7 1 1257 1 1 1
"112" 1 2 48 5 1 1693 1 1 1
"113" 1 2 49 1 1 791 0 0 1
"114" 1 2 50 6 1 1141 1 1 1
"115" 1 2 51 7 1 1353 1 1 1
"116" 1 2 52 8 1 728 1 1 1
"117" 1 2 53 5 1 2396 1 1 1
"118" 1 2 54 3 1 697 0 0 1
"119" 1 2 55 2 1 1319 0 0 1
"120" 1 2 56 4 1 1556 0 0 1
"121" 1 2 57 6 1 890 1 1 1
"122" 1 2 58 7 1 1615 1 1 1
"123" 1 2 59 3 1 895 0 0 1
"124" 1 2 60 2 1 903 0 0 1
"125" 1 2 61 8 1 1114 1 1 1
"126" 1 2 62 1 1 1130 0 0 1
"127" 1 2 63 5 1 1591 1 1 1
"128" 1 2 64 4 1 684 0 0 1
"129" 1 3 1 5 0 874 1 0 1
"130" 1 3 2 7 1 940 1 1 1
"131" 1 3 3 3 1 961 0 0 1
"132" 1 3 4 4 1 1232 0 0 1
"133" 1 3 5 2 1 692 0 0 1
"134" 1 3 6 1 1 553 0 0 1
"135" 1 3 7 6 1 605 1 1 1
"136" 1 3 8 8 1 578 1 1 1
"137" 1 3 9 2 1 560 0 0 1
"138" 1 3 10 8 1 579 1 1 1
"139" 1 3 11 5 1 843 1 1 1
"140" 1 3 12 6 1 620 1 1 1
"141" 1 3 13 4 1 735 0 0 1
"142" 1 3 14 1 1 570 0 0 1
"143" 1 3 15 3 1 729 0 0 1
"144" 1 3 16 7 1 492 1 1 1
"145" 1 3 17 2 1 568 0 0 1
"146" 1 3 18 4 1 710 0 0 1
"147" 1 3 19 7 1 506 1 1 1
"148" 1 3 20 3 1 473 0 0 1
"149" 1 3 21 6 0 914 1 0 1
"150" 1 3 22 1 1 763 0 0 1
"151" 1 3 23 5 1 1110 1 1 1
"152" 1 3 24 8 1 970 1 1 1
"153" 1 3 25 1 1 809 0 0 1
"154" 1 3 26 6 1 1061 1 1 1
"155" 1 3 27 3 1 760 0 0 1
"156" 1 3 28 4 1 655 0 0 1
"157" 1 3 29 8 1 593 1 1 1
"158" 1 3 30 7 1 607 1 1 1
"159" 1 3 31 2 1 522 0 0 1
"160" 1 3 32 5 0 751 1 0 1
"161" 1 3 33 5 1 463 1 1 1
"162" 1 3 34 1 1 746 0 0 1
"163" 1 3 35 6 1 762 1 1 1
"164" 1 3 36 8 1 580 1 1 1
"165" 1 3 37 2 1 586 0 0 1
"166" 1 3 38 7 1 690 1 1 1
"167" 1 3 39 3 1 1146 0 0 1
"168" 1 3 40 4 1 714 0 0 1
"169" 1 3 41 1 1 656 0 0 1
"170" 1 3 42 4 1 758 0 0 1
"171" 1 3 43 8 1 566 1 1 1
"172" 1 3 44 6 1 632 1 1 1
"173" 1 3 45 3 1 583 0 0 1
"174" 1 3 46 2 1 559 0 0 1
"175" 1 3 47 7 1 568 1 1 1
"176" 1 3 48 5 1 831 1 1 1
"177" 1 3 49 1 1 531 0 0 1
"178" 1 3 50 6 0 574 1 0 1
"179" 1 3 51 7 1 707 1 1 1
"180" 1 3 52 8 1 609 1 1 1
"181" 1 3 53 5 1 640 1 1 1
"182" 1 3 54 3 1 728 0 0 1
"183" 1 3 55 2 1 1304 0 0 1
"184" 1 3 56 4 1 719 0 0 1
"185" 1 3 57 6 1 569 1 1 1
"186" 1 3 58 7 0 627 1 0 1
"187" 1 3 59 3 1 1436 0 0 1
"188" 1 3 60 2 0 580 0 1 1
"189" 1 3 61 8 1 899 1 1 1
"190" 1 3 62 1 1 794 0 0 1
"191" 1 3 63 5 1 704 1 1 1
"192" 1 3 64 4 1 1237 0 0 1
"193" 1 4 1 5 1 1604 1 1 1
"194" 1 4 2 7 1 734 1 1 1
"195" 1 4 3 3 1 835 0 0 1
"196" 1 4 4 4 1 1407 0 0 1
"197" 1 4 5 2 1 468 0 0 1
"198" 1 4 6 1 1 467 0 0 1
"199" 1 4 7 6 1 1276 1 1 1
"200" 1 4 8 8 1 434 1 1 1
"201" 1 4 9 2 1 467 0 0 1
"202" 1 4 10 8 1 502 1 1 1
"203" 1 4 11 5 1 470 1 1 1
"204" 1 4 12 6 1 1182 1 1 1
"205" 1 4 13 4 1 653 0 0 1
"206" 1 4 14 1 1 378 0 0 1
"207" 1 4 15 3 1 432 0 0 1
"208" 1 4 16 7 1 1565 1 1 1
"209" 1 4 17 2 1 475 0 0 1
"210" 1 4 18 4 1 1902 0 0 1
"211" 1 4 19 7 1 837 1 1 1
"212" 1 4 20 3 1 458 0 0 1
"213" 1 4 21 6 1 1244 1 1 1
"214" 1 4 22 1 1 361 0 0 1
"215" 1 4 23 5 1 530 1 1 1
"216" 1 4 24 8 1 706 1 1 1
"217" 1 4 25 1 1 912 0 0 1
"218" 1 4 26 6 1 417 1 1 1
"219" 1 4 27 3 1 474 0 0 1
"220" 1 4 28 4 1 519 0 0 1
"221" 1 4 29 8 1 489 1 1 1
"222" 1 4 30 7 1 583 1 1 1
"223" 1 4 31 2 1 403 0 0 1
"224" 1 4 32 5 1 464 1 1 1
"225" 1 4 33 5 1 479 1 1 1
"226" 1 4 34 1 1 386 0 0 1
"227" 1 4 35 6 1 463 1 1 1
"228" 1 4 36 8 1 444 1 1 1
"229" 1 4 37 2 1 448 0 0 1
"230" 1 4 38 7 1 369 1 1 1
"231" 1 4 39 3 1 469 0 0 1
"232" 1 4 40 4 1 981 0 0 1
"233" 1 4 41 1 1 433 0 0 1
"234" 1 4 42 4 1 1366 0 0 1
"235" 1 4 43 8 1 476 1 1 1
"236" 1 4 44 6 1 640 1 1 1
"237" 1 4 45 3 1 547 0 0 1
"238" 1 4 46 2 1 738 0 0 1
"239" 1 4 47 7 1 489 1 1 1
"240" 1 4 48 5 1 454 1 1 1
"241" 1 4 49 1 1 371 0 0 1
"242" 1 4 50 6 1 538 1 1 1
"243" 1 4 51 7 1 468 1 1 1
"244" 1 4 52 8 1 387 1 1 1
"245" 1 4 53 5 1 385 1 1 1
"246" 1 4 54 3 1 446 0 0 1
"247" 1 4 55 2 1 448 0 0 1
"248" 1 4 56 4 1 572 0 0 1
"249" 1 4 57 6 1 513 1 1 1
"250" 1 4 58 7 1 576 1 1 1
"251" 1 4 59 3 1 527 0 0 1
"252" 1 4 60 2 1 543 0 0 1
"253" 1 4 61 8 1 555 1 1 1
"254" 1 4 62 1 1 512 0 0 1
"255" 1 4 63 5 1 488 1 1 1
"256" 1 4 64 4 1 364 0 0 1
"257" 1 5 1 5 0 890 1 0 1
"258" 1 5 2 7 0 1321 1 0 1
"259" 1 5 3 3 0 793 0 1 1
"260" 1 5 4 4 0 3132 0 1 1
"261" 1 5 5 2 1 880 0 0 1
"262" 1 5 6 1 1 574 0 0 1
"263" 1 5 7 6 1 923 1 1 1
"264" 1 5 8 8 1 1005 1 1 1
"265" 1 5 9 2 0 742 0 1 1
"266" 1 5 10 8 1 810 1 1 1
"267" 1 5 11 5 0 2902 1 0 1
"268" 1 5 12 6 1 2053 1 1 1
"269" 1 5 13 4 1 982 0 0 1
"270" 1 5 14 1 1 2130 0 0 1
"271" 1 5 15 3 1 780 0 0 1
"272" 1 5 16 7 1 741 1 1 1
"273" 1 5 17 2 1 773 0 0 1
"274" 1 5 18 4 1 1812 0 0 1
"275" 1 5 19 7 1 689 1 1 1
"276" 1 5 20 3 1 1285 0 0 1
"277" 1 5 21 6 1 904 1 1 1
"278" 1 5 22 1 1 723 0 0 1
"279" 1 5 23 5 1 761 1 1 1
"280" 1 5 24 8 1 633 1 1 1
"281" 1 5 25 1 1 537 0 0 1
"282" 1 5 26 6 1 568 1 1 1
"283" 1 5 27 3 1 596 0 0 1
"284" 1 5 28 4 1 1914 0 0 1
"285" 1 5 29 8 1 578 1 1 1
"286" 1 5 30 7 1 589 1 1 1
"287" 1 5 31 2 1 529 0 0 1
"288" 1 5 32 5 1 1436 1 1 1
"289" 1 5 33 5 1 701 1 1 1
"290" 1 5 34 1 1 504 0 0 1
"291" 1 5 35 6 1 861 1 1 1
"292" 1 5 36 8 1 601 1 1 1
"293" 1 5 37 2 1 481 0 0 1
"294" 1 5 38 7 1 598 1 1 1
"295" 1 5 39 3 1 1194 0 0 1
"296" 1 5 40 4 1 698 0 0 1
"297" 1 5 41 1 1 456 0 0 1
"298" 1 5 42 4 1 456 0 0 1
"299" 1 5 43 8 1 554 1 1 1
"300" 1 5 44 6 1 579 1 1 1
"301" 1 5 45 3 1 427 0 0 1
"302" 1 5 46 2 1 635 0 0 1
"303" 1 5 47 7 1 521 1 1 1
"304" 1 5 48 5 1 440 1 1 1
"305" 1 5 49 1 1 472 0 0 1
"306" 1 5 50 6 1 1503 1 1 1
"307" 1 5 51 7 1 510 1 1 1
"308" 1 5 52 8 1 624 1 1 1
"309" 1 5 53 5 1 579 1 1 1
"310" 1 5 54 3 1 602 0 0 1
"311" 1 5 55 2 1 582 0 0 1
"312" 1 5 56 4 1 1112 0 0 1
"313" 1 5 57 6 1 860 1 1 1
"314" 1 5 58 7 1 481 1 1 1
"315" 1 5 59 3 1 561 0 0 1
"316" 1 5 60 2 1 384 0 0 1
"317" 1 5 61 8 1 458 1 1 1
"318" 1 5 62 1 1 472 0 0 1
"319" 1 5 63 5 1 441 1 1 1
"320" 1 5 64 4 1 847 0 0 1
"321" 1 6 1 5 1 2205 1 1 1
"322" 1 6 2 7 1 1726 1 1 1
"323" 1 6 3 3 1 866 0 0 1
"324" 1 6 4 4 1 935 0 0 1
"325" 1 6 5 2 1 718 0 0 1
"326" 1 6 6 1 1 1004 0 0 1
"327" 1 6 7 6 1 1210 1 1 1
"328" 1 6 8 8 1 645 1 1 1
"329" 1 6 9 2 1 797 0 0 1
"330" 1 6 10 8 0 2580 1 0 1
"331" 1 6 11 5 1 1237 1 1 1
"332" 1 6 12 6 1 968 1 1 1
"333" 1 6 13 4 1 2927 0 0 1
"334" 1 6 14 1 1 728 0 0 1
"335" 1 6 15 3 1 977 0 0 1
"336" 1 6 16 7 1 966 1 1 1
"337" 1 6 17 2 1 495 0 0 1
"338" 1 6 18 4 1 3056 0 0 1
"339" 1 6 19 7 1 545 1 1 1
"340" 1 6 20 3 1 3843 0 0 1
"341" 1 6 21 6 1 1936 1 1 1
"342" 1 6 22 1 1 573 0 0 1
"343" 1 6 23 5 1 2441 1 1 1
"344" 1 6 24 8 1 788 1 1 1
"345" 1 6 25 1 1 558 0 0 1
"346" 1 6 26 6 1 1157 1 1 1
"347" 1 6 27 3 1 687 0 0 1
"348" 1 6 28 4 1 3886 0 0 1
"349" 1 6 29 8 1 627 1 1 1
"350" 1 6 30 7 1 448 1 1 1
"351" 1 6 31 2 1 434 0 0 1
"352" 1 6 32 5 1 818 1 1 1
"353" 1 6 33 5 1 1775 1 1 1
"354" 1 6 34 1 1 835 0 0 1
"355" 1 6 35 6 1 733 1 1 1
"356" 1 6 36 8 1 609 1 1 1
"357" 1 6 37 2 1 1180 0 0 1
"358" 1 6 38 7 1 649 1 1 1
"359" 1 6 39 3 1 835 0 0 1
"360" 1 6 40 4 1 4293 0 0 1
"361" 1 6 41 1 1 622 0 0 1
"362" 1 6 42 4 1 552 0 0 1
"363" 1 6 43 8 1 454 1 1 1
"364" 1 6 44 6 1 2938 1 1 1
"365" 1 6 45 3 1 894 0 0 1
"366" 1 6 46 2 1 548 0 0 1
"367" 1 6 47 7 1 507 1 1 1
"368" 1 6 48 5 1 1921 1 1 1
"369" 1 6 49 1 1 448 0 0 1
"370" 1 6 50 6 1 719 1 1 1
"371" 1 6 51 7 1 553 1 1 1
"372" 1 6 52 8 1 546 1 1 1
"373" 1 6 53 5 1 1049 1 1 1
"374" 1 6 54 3 1 505 0 0 1
"375" 1 6 55 2 1 1551 0 0 1
"376" 1 6 56 4 1 792 0 0 1
"377" 1 6 57 6 1 879 1 1 1
"378" 1 6 58 7 1 585 1 1 1
"379" 1 6 59 3 1 608 0 0 1
"380" 1 6 60 2 1 1313 0 0 1
"381" 1 6 61 8 1 658 1 1 1
"382" 1 6 62 1 1 487 0 0 1
"383" 1 6 63 5 1 1372 1 1 1
"384" 1 6 64 4 1 933 0 0 1
"385" 1 7 1 5 0 1620 1 0 1
"386" 1 7 2 7 0 1319 1 0 1
"387" 1 7 3 3 1 1199 0 0 1
"388" 1 7 4 4 0 1562 0 1 1
"389" 1 7 5 2 1 1901 0 0 1
"390" 1 7 6 1 1 1100 0 0 1
"391" 1 7 7 6 1 741 1 1 1
"392" 1 7 8 8 0 859 1 0 1
"393" 1 7 9 2 1 1123 0 0 1
"394" 1 7 10 8 1 793 1 1 1
"395" 1 7 11 5 1 1229 1 1 1
"396" 1 7 12 6 0 975 1 0 1
"397" 1 7 13 4 1 934 0 0 1
"398" 1 7 14 1 0 845 0 1 1
"399" 1 7 15 3 1 978 0 0 1
"400" 1 7 16 7 1 841 1 1 1
"401" 1 7 17 2 1 2813 0 0 1
"402" 1 7 18 4 0 1018 0 1 1
"403" 1 7 19 7 0 947 1 0 1
"404" 1 7 20 3 0 599 0 1 1
"405" 1 7 21 6 0 797 1 0 1
"406" 1 7 22 1 1 1046 0 0 1
"407" 1 7 23 5 0 1328 1 0 1
"408" 1 7 24 8 1 633 1 1 1
"409" 1 7 25 1 1 1389 0 0 1
"410" 1 7 26 6 1 1800 1 1 1
"411" 1 7 27 3 1 974 0 0 1
"412" 1 7 28 4 0 2040 0 1 1
"413" 1 7 29 8 1 973 1 1 1
"414" 1 7 30 7 1 687 1 1 1
"415" 1 7 31 2 1 492 0 0 1
"416" 1 7 32 5 0 1060 1 0 1
"417" 1 7 33 5 1 698 1 1 1
"418" 1 7 34 1 1 746 0 0 1
"419" 1 7 35 6 1 969 1 1 1
"420" 1 7 36 8 1 853 1 1 1
"421" 1 7 37 2 1 1174 0 0 1
"422" 1 7 38 7 1 670 1 1 1
"423" 1 7 39 3 1 540 0 0 1
"424" 1 7 40 4 1 832 0 0 1
"425" 1 7 41 1 1 559 0 0 1
"426" 1 7 42 4 1 1489 0 0 1
"427" 1 7 43 8 1 481 1 1 1
"428" 1 7 44 6 1 2780 1 1 1
"429" 1 7 45 3 1 718 0 0 1
"430" 1 7 46 2 1 786 0 0 1
"431" 1 7 47 7 1 796 1 1 1
"432" 1 7 48 5 1 821 1 1 1
"433" 1 7 49 1 1 1116 0 0 1
"434" 1 7 50 6 1 664 1 1 1
"435" 1 7 51 7 1 625 1 1 1
"436" 1 7 52 8 1 500 1 1 1
"437" 1 7 53 5 1 629 1 1 1
"438" 1 7 54 3 1 547 0 0 1
"439" 1 7 55 2 1 856 0 0 1
"440" 1 7 56 4 1 823 0 0 1
"441" 1 7 57 6 1 749 1 1 1
"442" 1 7 58 7 1 629 1 1 1
"443" 1 7 59 3 1 649 0 0 1
"444" 1 7 60 2 1 583 0 0 1
"445" 1 7 61 8 1 626 1 1 1
"446" 1 7 62 1 1 625 0 0 1
"447" 1 7 63 5 1 658 1 1 1
"448" 1 7 64 4 1 930 0 0 1
"449" 1 8 1 5 0 2377 1 0 1
"450" 1 8 2 7 0 3532 1 0 1
"451" 1 8 3 3 1 3009 0 0 1
"452" 1 8 4 4 0 2130 0 1 1
"453" 1 8 5 2 1 1247 0 0 1
"454" 1 8 6 1 1 1027 0 0 1
"455" 1 8 7 6 1 1048 1 1 1
"456" 1 8 8 8 1 721 1 1 1
"457" 1 8 9 2 1 620 0 0 1
"458" 1 8 10 8 0 1042 1 0 1
"459" 1 8 11 5 1 2621 1 1 1
"460" 1 8 12 6 1 956 1 1 1
"461" 1 8 13 4 1 1105 0 0 1
"462" 1 8 14 1 1 1847 0 0 1
"463" 1 8 15 3 1 819 0 0 1
"464" 1 8 16 7 1 623 1 1 1
"465" 1 8 17 2 1 888 0 0 1
"466" 1 8 18 4 1 1000 0 0 1
"467" 1 8 19 7 1 561 1 1 1
"468" 1 8 20 3 1 1421 0 0 1
"469" 1 8 21 6 1 1037 1 1 1
"470" 1 8 22 1 1 1151 0 0 1
"471" 1 8 23 5 1 671 1 1 1
"472" 1 8 24 8 1 631 1 1 1
"473" 1 8 25 1 1 658 0 0 1
"474" 1 8 26 6 1 776 1 1 1
"475" 1 8 27 3 1 699 0 0 1
"476" 1 8 28 4 1 616 0 0 1
"477" 1 8 29 8 1 445 1 1 1
"478" 1 8 30 7 1 548 1 1 1
"479" 1 8 31 2 1 521 0 0 1
"480" 1 8 32 5 1 882 1 1 1
"481" 1 8 33 5 1 638 1 1 1
"482" 1 8 34 1 1 540 0 0 1
"483" 1 8 35 6 1 644 1 1 1
"484" 1 8 36 8 1 570 1 1 1
"485" 1 8 37 2 1 478 0 0 1
"486" 1 8 38 7 1 833 1 1 1
"487" 1 8 39 3 1 750 0 0 1
"488" 1 8 40 4 1 885 0 0 1
"489" 1 8 41 1 1 3118 0 0 1
"490" 1 8 42 4 1 597 0 0 1
"491" 1 8 43 8 1 469 1 1 1
"492" 1 8 44 6 1 502 1 1 1
"493" 1 8 45 3 1 861 0 0 1
"494" 1 8 46 2 1 835 0 0 1
"495" 1 8 47 7 1 495 1 1 1
"496" 1 8 48 5 1 798 1 1 1
"497" 1 8 49 1 1 662 0 0 1
"498" 1 8 50 6 1 756 1 1 1
"499" 1 8 51 7 1 548 1 1 1
"500" 1 8 52 8 1 903 1 1 1
"501" 1 8 53 5 1 584 1 1 1
"502" 1 8 54 3 1 687 0 0 1
"503" 1 8 55 2 1 1289 0 0 1
"504" 1 8 56 4 1 522 0 0 1
"505" 1 8 57 6 1 635 1 1 1
"506" 1 8 58 7 1 425 1 1 1
"507" 1 8 59 3 1 551 0 0 1
"508" 1 8 60 2 1 703 0 0 1
"509" 1 8 61 8 1 480 1 1 1
"510" 1 8 62 1 1 806 0 0 1
"511" 1 8 63 5 1 661 1 1 1
"512" 1 8 64 4 1 560 0 0 1
"513" 1 9 1 5 0 458 1 0 1
"514" 1 9 2 7 1 586 1 1 1
"515" 1 9 3 3 1 616 0 0 1
"516" 1 9 4 4 1 600 0 0 1
"517" 1 9 5 2 1 498 0 0 1
"518" 1 9 6 1 1 404 0 0 1
"519" 1 9 7 6 1 399 1 1 1
"520" 1 9 8 8 1 534 1 1 1
"521" 1 9 9 2 1 531 0 0 1
"522" 1 9 10 8 1 326 1 1 1
"523" 1 9 11 5 0 814 1 0 1
"524" 1 9 12 6 1 711 1 1 1
"525" 1 9 13 4 1 457 0 0 1
"526" 1 9 14 1 1 538 0 0 1
"527" 1 9 15 3 1 598 0 0 1
"528" 1 9 16 7 1 419 1 1 1
"529" 1 9 17 2 1 321 0 0 1
"530" 1 9 18 4 1 703 0 0 1
"531" 1 9 19 7 1 349 1 1 1
"532" 1 9 20 3 1 619 0 0 1
"533" 1 9 21 6 1 421 1 1 1
"534" 1 9 22 1 1 357 0 0 1
"535" 1 9 23 5 1 311 1 1 1
"536" 1 9 24 8 1 486 1 1 1
"537" 1 9 25 1 1 298 0 0 1
"538" 1 9 26 6 1 229 1 1 1
"539" 1 9 27 3 1 276 0 0 1
"540" 1 9 28 4 0 248 0 1 1
"541" 1 9 29 8 1 763 1 1 1
"542" 1 9 30 7 1 355 1 1 1
"543" 1 9 31 2 1 367 0 0 1
"544" 1 9 32 5 1 380 1 1 1
"545" 1 9 33 5 1 691 1 1 1
"546" 1 9 34 1 1 357 0 0 1
"547" 1 9 35 6 1 267 1 1 1
"548" 1 9 36 8 0 248 1 0 1
"549" 1 9 37 2 1 532 0 0 1
"550" 1 9 38 7 1 478 1 1 1
"551" 1 9 39 3 1 610 0 0 1
"552" 1 9 40 4 0 694 0 1 1
"553" 1 9 41 1 1 588 0 0 1
"554" 1 9 42 4 1 475 0 0 1
"555" 1 9 43 8 1 301 1 1 1
"556" 1 9 44 6 1 814 1 1 1
"557" 1 9 45 3 1 510 0 0 1
"558" 1 9 46 2 1 568 0 0 1
"559" 1 9 47 7 1 410 1 1 1
"560" 1 9 48 5 1 1432 1 1 1
"561" 1 9 49 1 1 363 0 0 1
"562" 1 9 50 6 1 477 1 1 1
"563" 1 9 51 7 1 571 1 1 1
"564" 1 9 52 8 1 417 1 1 1
"565" 1 9 53 5 1 668 1 1 1
"566" 1 9 54 3 1 534 0 0 1
"567" 1 9 55 2 1 390 0 0 1
"568" 1 9 56 4 1 562 0 0 1
"569" 1 9 57 6 1 389 1 1 1
"570" 1 9 58 7 1 443 1 1 1
"571" 1 9 59 3 1 372 0 0 1
"572" 1 9 60 2 1 386 0 0 1
"573" 1 9 61 8 1 265 1 1 1
"574" 1 9 62 1 1 489 0 0 1
"575" 1 9 63 5 1 288 1 1 1
"576" 1 9 64 4 1 437 0 0 1
"577" 1 10 1 5 0 1120 1 0 1
"578" 1 10 2 7 1 966 1 1 1
"579" 1 10 3 3 0 1161 0 1 1
"580" 1 10 4 4 1 2079 0 0 1
"581" 1 10 5 2 1 1219 0 0 1
"582" 1 10 6 1 1 2099 0 0 1
"583" 1 10 7 6 0 785 1 0 1
"584" 1 10 8 8 0 1666 1 0 1
"585" 1 10 9 2 0 950 0 1 1
"586" 1 10 10 8 0 2228 1 0 1
"587" 1 10 11 5 1 2200 1 1 1
"588" 1 10 12 6 0 1120 1 0 1
"589" 1 10 13 4 0 2563 0 1 1
"590" 1 10 14 1 0 3260 0 1 1
"591" 1 10 15 3 0 2209 0 1 1
"592" 1 10 16 7 0 1268 1 0 1
"593" 1 10 17 2 1 2705 0 0 1
"594" 1 10 18 4 1 780 0 0 1
"595" 1 10 19 7 1 694 1 1 1
"596" 1 10 20 3 1 1995 0 0 1
"597" 1 10 21 6 1 1986 1 1 1
"598" 1 10 22 1 1 1227 0 0 1
"599" 1 10 23 5 1 1021 1 1 1
"600" 1 10 24 8 1 1860 1 1 1
"601" 1 10 25 1 1 757 0 0 1
"602" 1 10 26 6 0 2267 1 0 1
"603" 1 10 27 3 1 1596 0 0 1
"604" 1 10 28 4 0 3494 0 1 1
"605" 1 10 29 8 1 1891 1 1 1
"606" 1 10 30 7 1 1015 1 1 1
"607" 1 10 31 2 0 2121 0 1 1
"608" 1 10 32 5 1 3078 1 1 1
"609" 1 10 33 5 1 896 1 1 1
"610" 1 10 34 1 1 1270 0 0 1
"611" 1 10 35 6 1 1059 1 1 1
"612" 1 10 36 8 1 764 1 1 1
"613" 1 10 37 2 1 508 0 0 1
"614" 1 10 38 7 1 353 1 1 1
"615" 1 10 39 3 1 436 0 0 1
"616" 1 10 40 4 0 813 0 1 1
"617" 1 10 41 1 1 623 0 0 1
"618" 1 10 42 4 1 1854 0 0 1
"619" 1 10 43 8 1 748 1 1 1
"620" 1 10 44 6 1 1624 1 1 1
"621" 1 10 45 3 1 570 0 0 1
"622" 1 10 46 2 1 1282 0 0 1
"623" 1 10 47 7 1 626 1 1 1
"624" 1 10 48 5 1 1650 1 1 1
"625" 1 10 49 1 1 1064 0 0 1
"626" 1 10 50 6 1 554 1 1 1
"627" 1 10 51 7 0 1187 1 0 1
"628" 1 10 52 8 1 925 1 1 1
"629" 1 10 53 5 1 2402 1 1 1
"630" 1 10 54 3 1 1434 0 0 1
"631" 1 10 55 2 1 1660 0 0 1
"632" 1 10 56 4 1 1976 0 0 1
"633" 1 10 57 6 1 1644 1 1 1
"634" 1 10 58 7 1 1708 1 1 1
"635" 1 10 59 3 1 2177 0 0 1
"636" 1 10 60 2 1 846 0 0 1
"637" 1 10 61 8 1 713 1 1 1
"638" 1 10 62 1 0 755 0 1 1
"639" 1 10 63 5 1 1623 1 1 1
"640" 1 10 64 4 1 1650 0 0 1
"641" 1 11 1 5 0 845 1 0 1
"642" 1 11 2 7 1 1038 1 1 1
"643" 1 11 3 3 1 601 0 0 1
"644" 1 11 4 4 1 625 0 0 1
"645" 1 11 5 2 1 638 0 0 1
"646" 1 11 6 1 1 671 0 0 1
"647" 1 11 7 6 1 554 1 1 1
"648" 1 11 8 8 1 446 1 1 1
"649" 1 11 9 2 1 561 0 0 1
"650" 1 11 10 8 1 615 1 1 1
"651" 1 11 11 5 1 741 1 1 1
"652" 1 11 12 6 1 639 1 1 1
"653" 1 11 13 4 1 429 0 0 1
"654" 1 11 14 1 1 528 0 0 1
"655" 1 11 15 3 1 1461 0 0 1
"656" 1 11 16 7 1 392 1 1 1
"657" 1 11 17 2 1 582 0 0 1
"658" 1 11 18 4 1 705 0 0 1
"659" 1 11 19 7 1 418 1 1 1
"660" 1 11 20 3 1 637 0 0 1
"661" 1 11 21 6 1 572 1 1 1
"662" 1 11 22 1 1 1358 0 0 1
"663" 1 11 23 5 1 602 1 1 1
"664" 1 11 24 8 1 614 1 1 1
"665" 1 11 25 1 1 524 0 0 1
"666" 1 11 26 6 1 547 1 1 1
"667" 1 11 27 3 1 846 0 0 1
"668" 1 11 28 4 1 526 0 0 1
"669" 1 11 29 8 1 429 1 1 1
"670" 1 11 30 7 1 563 1 1 1
"671" 1 11 31 2 1 1409 0 0 1
"672" 1 11 32 5 1 551 1 1 1
"673" 1 11 33 5 1 489 1 1 1
"674" 1 11 34 1 1 404 0 0 1
"675" 1 11 35 6 1 1139 1 1 1
"676" 1 11 36 8 1 1149 1 1 1
"677" 1 11 37 2 1 596 0 0 1
"678" 1 11 38 7 1 634 1 1 1
"679" 1 11 39 3 1 586 0 0 1
"680" 1 11 40 4 1 3603 0 0 1
"681" 1 11 41 1 1 592 0 0 1
"682" 1 11 42 4 1 799 0 0 1
"683" 1 11 43 8 1 510 1 1 1
"684" 1 11 44 6 1 524 1 1 1
"685" 1 11 45 3 1 1504 0 0 1
"686" 1 11 46 2 1 543 0 0 1
"687" 1 11 47 7 1 347 1 1 1
"688" 1 11 48 5 1 439 1 1 1
"689" 1 11 49 1 1 502 0 0 1
"690" 1 11 50 6 1 1879 1 1 1
"691" 1 11 51 7 1 502 1 1 1
"692" 1 11 52 8 1 569 1 1 1
"693" 1 11 53 5 1 721 1 1 1
"694" 1 11 54 3 1 432 0 0 1
"695" 1 11 55 2 1 510 0 0 1
"696" 1 11 56 4 1 651 0 0 1
"697" 1 11 57 6 1 662 1 1 1
"698" 1 11 58 7 1 496 1 1 1
"699" 1 11 59 3 1 599 0 0 1
"700" 1 11 60 2 1 823 0 0 1
"701" 1 11 61 8 1 688 1 1 1
"702" 1 11 62 1 1 1030 0 0 1
"703" 1 11 63 5 1 542 1 1 1
"704" 1 11 64 4 1 1629 0 0 1
"705" 1 12 1 5 0 1221 1 0 1
"706" 1 12 2 7 1 936 1 1 1
"707" 1 12 3 3 1 837 0 0 1
"708" 1 12 4 4 1 1234 0 0 1
"709" 1 12 5 2 1 652 0 0 1
"710" 1 12 6 1 1 1209 0 0 1
"711" 1 12 7 6 1 976 1 1 1
"712" 1 12 8 8 1 791 1 1 1
"713" 1 12 9 2 1 618 0 0 1
"714" 1 12 10 8 1 606 1 1 1
"715" 1 12 11 5 1 748 1 1 1
"716" 1 12 12 6 1 803 1 1 1
"717" 1 12 13 4 1 958 0 0 1
"718" 1 12 14 1 1 1143 0 0 1
"719" 1 12 15 3 1 1254 0 0 1
"720" 1 12 16 7 1 732 1 1 1
"721" 1 12 17 2 1 2081 0 0 1
"722" 1 12 18 4 1 3057 0 0 1
"723" 1 12 19 7 1 1102 1 1 1
"724" 1 12 20 3 1 1551 0 0 1
"725" 1 12 21 6 1 2730 1 1 1
"726" 1 12 22 1 0 1245 0 1 1
"727" 1 12 23 5 1 2760 1 1 1
"728" 1 12 24 8 1 1765 1 1 1
"729" 1 12 25 1 1 1522 0 0 1
"730" 1 12 26 6 1 2084 1 1 1
"731" 1 12 27 3 1 2419 0 0 1
"732" 1 12 28 4 1 2046 0 0 1
"733" 1 12 29 8 1 1180 1 1 1
"734" 1 12 30 7 1 1473 1 1 1
"735" 1 12 31 2 1 4207 0 0 1
"736" 1 12 32 5 1 1357 1 1 1
"737" 1 12 33 5 1 2119 1 1 1
"738" 1 12 34 1 1 1906 0 0 1
"739" 1 12 35 6 1 2030 1 1 1
"740" 1 12 36 8 1 780 1 1 1
"741" 1 12 37 2 1 1443 0 0 1
"742" 1 12 38 7 1 1016 1 1 1
"743" 1 12 39 3 1 2470 0 0 1
"744" 1 12 40 4 1 1248 0 0 1
"745" 1 12 41 1 1 1527 0 0 1
"746" 1 12 42 4 1 2137 0 0 1
"747" 1 12 43 8 1 833 1 1 1
"748" 1 12 44 6 1 693 1 1 1
"749" 1 12 45 3 1 1741 0 0 1
"750" 1 12 46 2 1 1654 0 0 1
"751" 1 12 47 7 1 635 1 1 1
"752" 1 12 48 5 1 2437 1 1 1
"753" 1 12 49 1 1 882 0 0 1
"754" 1 12 50 6 1 3719 1 1 1
"755" 1 12 51 7 1 1550 1 1 1
"756" 1 12 52 8 1 1274 1 1 1
"757" 1 12 53 5 1 930 1 1 1
"758" 1 12 54 3 1 934 0 0 1
"759" 1 12 55 2 1 1770 0 0 1
"760" 1 12 56 4 0 1825 0 1 1
"761" 1 12 57 6 1 2247 1 1 1
"762" 1 12 58 7 1 2660 1 1 1
"763" 1 12 59 3 1 1920 0 0 1
"764" 1 12 60 2 1 1725 0 0 1
"765" 1 12 61 8 1 756 1 1 1
"766" 1 12 62 1 1 3905 0 0 1
"767" 1 12 63 5 1 1610 1 1 1
"768" 1 12 64 4 1 2136 0 0 1
"769" 1 13 1 5 0 1528 1 0 1
"770" 1 13 2 7 1 2554 1 1 1
"771" 1 13 3 3 1 1214 0 0 1
"772" 1 13 4 4 0 3663 0 1 1
"773" 1 13 5 2 1 2695 0 0 1
"774" 1 13 6 1 1 1463 0 0 1
"775" 1 13 7 6 1 1437 1 1 1
"776" 1 13 8 8 1 1040 1 1 1
"777" 1 13 9 2 1 624 0 0 1
"778" 1 13 10 8 0 1396 1 0 1
"779" 1 13 11 5 1 1392 1 1 1
"780" 1 13 12 6 1 780 1 1 1
"781" 1 13 13 4 1 1913 0 0 1
"782" 1 13 14 1 1 1029 0 0 1
"783" 1 13 15 3 1 969 0 0 1
"784" 1 13 16 7 1 1176 1 1 1
"785" 1 13 17 2 1 615 0 0 1
"786" 1 13 18 4 1 1240 0 0 1
"787" 1 13 19 7 1 944 1 1 1
"788" 1 13 20 3 1 891 0 0 1
"789" 1 13 21 6 1 1789 1 1 1
"790" 1 13 22 1 1 765 0 0 1
"791" 1 13 23 5 1 845 1 1 1
"792" 1 13 24 8 1 949 1 1 1
"793" 1 13 25 1 1 732 0 0 1
"794" 1 13 26 6 1 2201 1 1 1
"795" 1 13 27 3 1 565 0 0 1
"796" 1 13 28 4 1 1336 0 0 1
"797" 1 13 29 8 1 986 1 1 1
"798" 1 13 30 7 1 893 1 1 1
"799" 1 13 31 2 1 1100 0 0 1
"800" 1 13 32 5 1 1285 1 1 1
"801" 1 13 33 5 1 1775 1 1 1
"802" 1 13 34 1 1 1262 0 0 1
"803" 1 13 35 6 1 1136 1 1 1
"804" 1 13 36 8 1 786 1 1 1
"805" 1 13 37 2 1 763 0 0 1
"806" 1 13 38 7 1 1002 1 1 1
"807" 1 13 39 3 1 2157 0 0 1
"808" 1 13 40 4 1 1935 0 0 1
"809" 1 13 41 1 1 757 0 0 1
"810" 1 13 42 4 1 1185 0 0 1
"811" 1 13 43 8 1 747 1 1 1
"812" 1 13 44 6 1 1210 1 1 1
"813" 1 13 45 3 1 1009 0 0 1
"814" 1 13 46 2 1 750 0 0 1
"815" 1 13 47 7 1 627 1 1 1
"816" 1 13 48 5 1 2916 1 1 1
"817" 1 13 49 1 1 508 0 0 1
"818" 1 13 50 6 1 1372 1 1 1
"819" 1 13 51 7 1 712 1 1 1
"820" 1 13 52 8 1 645 1 1 1
"821" 1 13 53 5 1 867 1 1 1
"822" 1 13 54 3 1 869 0 0 1
"823" 1 13 55 2 1 897 0 0 1
"824" 1 13 56 4 1 930 0 0 1
"825" 1 13 57 6 1 1112 1 1 1
"826" 1 13 58 7 1 798 1 1 1
"827" 1 13 59 3 0 844 0 1 1
"828" 1 13 60 2 1 1046 0 0 1
"829" 1 13 61 8 1 780 1 1 1
"830" 1 13 62 1 1 1575 0 0 1
"831" 1 13 63 5 1 1467 1 1 1
"832" 1 13 64 4 1 1878 0 0 1
"833" 1 14 1 5 0 1942 1 0 1
"834" 1 14 2 7 1 768 1 1 1
"835" 1 14 3 3 1 485 0 0 1
"836" 1 14 4 4 0 602 0 1 1
"837" 1 14 5 2 0 717 0 1 1
"838" 1 14 6 1 1 1358 0 0 1
"839" 1 14 7 6 0 766 1 0 1
"840" 1 14 8 8 0 613 1 0 1
"841" 1 14 9 2 0 558 0 1 1
"842" 1 14 10 8 0 1301 1 0 1
"843" 1 14 11 5 1 726 1 1 1
"844" 1 14 12 6 0 993 1 0 1
"845" 1 14 13 4 0 972 0 1 1
"846" 1 14 14 1 1 1201 0 0 1
"847" 1 14 15 3 1 950 0 0 1
"848" 1 14 16 7 1 725 1 1 1
"849" 1 14 17 2 1 602 0 0 1
"850" 1 14 18 4 0 1349 0 1 1
"851" 1 14 19 7 1 1290 1 1 1
"852" 1 14 20 3 1 1658 0 0 1
"853" 1 14 21 6 1 772 1 1 1
"854" 1 14 22 1 1 1004 0 0 1
"855" 1 14 23 5 1 993 1 1 1
"856" 1 14 24 8 1 1255 1 1 1
"857" 1 14 25 1 1 616 0 0 1
"858" 1 14 26 6 1 510 1 1 1
"859" 1 14 27 3 1 604 0 0 1
"860" 1 14 28 4 0 1014 0 1 1
"861" 1 14 29 8 1 901 1 1 1
"862" 1 14 30 7 1 553 1 1 1
"863" 1 14 31 2 1 408 0 0 1
"864" 1 14 32 5 1 1366 1 1 1
"865" 1 14 33 5 1 729 1 1 1
"866" 1 14 34 1 1 713 0 0 1
"867" 1 14 35 6 1 1295 1 1 1
"868" 1 14 36 8 1 615 1 1 1
"869" 1 14 37 2 1 646 0 0 1
"870" 1 14 38 7 1 513 1 1 1
"871" 1 14 39 3 1 580 0 0 1
"872" 1 14 40 4 0 684 0 1 1
"873" 1 14 41 1 0 506 0 1 1
"874" 1 14 42 4 1 1513 0 0 1
"875" 1 14 43 8 1 684 1 1 1
"876" 1 14 44 6 1 1065 1 1 1
"877" 1 14 45 3 1 1497 0 0 1
"878" 1 14 46 2 1 783 0 0 1
"879" 1 14 47 7 1 532 1 1 1
"880" 1 14 48 5 1 1103 1 1 1
"881" 1 14 49 1 1 619 0 0 1
"882" 1 14 50 6 1 579 1 1 1
"883" 1 14 51 7 1 502 1 1 1
"884" 1 14 52 8 1 524 1 1 1
"885" 1 14 53 5 1 958 1 1 1
"886" 1 14 54 3 1 783 0 0 1
"887" 1 14 55 2 1 831 0 0 1
"888" 1 14 56 4 1 1506 0 0 1
"889" 1 14 57 6 1 1092 1 1 1
"890" 1 14 58 7 1 503 1 1 1
"891" 1 14 59 3 1 702 0 0 1
"892" 1 14 60 2 1 657 0 0 1
"893" 1 14 61 8 1 597 1 1 1
"894" 1 14 62 1 1 1243 0 0 1
"895" 1 14 63 5 1 916 1 1 1
"896" 1 14 64 4 1 834 0 0 1
"897" 1 15 1 5 0 1620 1 0 1
"898" 1 15 2 7 1 1878 1 1 1
"899" 1 15 3 3 0 1566 0 1 1
"900" 1 15 4 4 1 1097 0 0 1
"901" 1 15 5 2 1 1571 0 0 1
"902" 1 15 6 1 1 733 0 0 1
"903" 1 15 7 6 1 750 1 1 1
"904" 1 15 8 8 1 1241 1 1 1
"905" 1 15 9 2 1 555 0 0 1
"906" 1 15 10 8 1 2465 1 1 1
"907" 1 15 11 5 1 789 1 1 1
"908" 1 15 12 6 0 1337 1 0 1
"909" 1 15 13 4 0 1109 0 1 1
"910" 1 15 14 1 1 2037 0 0 1
"911" 1 15 15 3 1 559 0 0 1
"912" 1 15 16 7 1 731 1 1 1
"913" 1 15 17 2 1 779 0 0 1
"914" 1 15 18 4 1 775 0 0 1
"915" 1 15 19 7 1 598 1 1 1
"916" 1 15 20 3 0 668 0 1 1
"917" 1 15 21 6 1 1484 1 1 1
"918" 1 15 22 1 1 654 0 0 1
"919" 1 15 23 5 1 2110 1 1 1
"920" 1 15 24 8 1 945 1 1 1
"921" 1 15 25 1 1 743 0 0 1
"922" 1 15 26 6 1 1834 1 1 1
"923" 1 15 27 3 1 1411 0 0 1
"924" 1 15 28 4 1 2067 0 0 1
"925" 1 15 29 8 1 779 1 1 1
"926" 1 15 30 7 1 1193 1 1 1
"927" 1 15 31 2 1 731 0 0 1
"928" 1 15 32 5 1 1734 1 1 1
"929" 1 15 33 5 1 2073 1 1 1
"930" 1 15 34 1 1 762 0 0 1
"931" 1 15 35 6 1 4021 1 1 1
"932" 1 15 36 8 1 1298 1 1 1
"933" 1 15 37 2 1 549 0 0 1
"934" 1 15 38 7 1 828 1 1 1
"935" 1 15 39 3 1 1685 0 0 1
"936" 1 15 40 4 1 1489 0 0 1
"937" 1 15 41 1 1 958 0 0 1
"938" 1 15 42 4 1 743 0 0 1
"939" 1 15 43 8 1 784 1 1 1
"940" 1 15 44 6 1 553 1 1 1
"941" 1 15 45 3 1 2239 0 0 1
"942" 1 15 46 2 1 839 0 0 1
"943" 1 15 47 7 1 633 1 1 1
"944" 1 15 48 5 1 1240 1 1 1
"945" 1 15 49 1 1 1048 0 0 1
"946" 1 15 50 6 1 2087 1 1 1
"947" 1 15 51 7 1 1116 1 1 1
"948" 1 15 52 8 1 654 1 1 1
"949" 1 15 53 5 1 3060 1 1 1
"950" 1 15 54 3 1 808 0 0 1
"951" 1 15 55 2 1 859 0 0 1
"952" 1 15 56 4 1 1355 0 0 1
"953" 1 15 57 6 1 1117 1 1 1
"954" 1 15 58 7 1 931 1 1 1
"955" 1 15 59 3 1 818 0 0 1
"956" 1 15 60 2 1 618 0 0 1
"957" 1 15 61 8 1 628 1 1 1
"958" 1 15 62 1 1 612 0 0 1
"959" 1 15 63 5 1 1462 1 1 1
"960" 1 15 64 4 1 1169 0 0 1
"961" 1 16 1 5 0 974 1 0 1
"962" 1 16 2 7 0 995 1 0 1
"963" 1 16 3 3 0 3567 0 1 1
"964" 1 16 4 4 0 1407 0 1 1
"965" 1 16 5 2 0 1892 0 1 1
"966" 1 16 6 1 0 4251 0 1 1
"967" 1 16 7 6 1 718 1 1 1
"968" 1 16 8 8 1 504 1 1 1
"969" 1 16 9 2 0 581 0 1 1
"970" 1 16 10 8 0 959 1 0 1
"971" 1 16 11 5 1 1471 1 1 1
"972" 1 16 12 6 0 923 1 0 1
"973" 1 16 13 4 0 608 0 1 1
"974" 1 16 14 1 1 541 0 0 1
"975" 1 16 15 3 1 530 0 0 1
"976" 1 16 16 7 0 846 1 0 1
"977" 1 16 17 2 0 1223 0 1 1
"978" 1 16 18 4 0 1003 0 1 1
"979" 1 16 19 7 0 705 1 0 1
"980" 1 16 20 3 1 659 0 0 1
"981" 1 16 21 6 0 1163 1 0 1
"982" 1 16 22 1 1 1627 0 0 1
"983" 1 16 23 5 0 558 1 0 1
"984" 1 16 24 8 1 2641 1 1 1
"985" 1 16 25 1 1 504 0 0 1
"986" 1 16 26 6 1 987 1 1 1
"987" 1 16 27 3 1 578 0 0 1
"988" 1 16 28 4 0 939 0 1 1
"989" 1 16 29 8 0 481 1 0 1
"990" 1 16 30 7 0 672 1 0 1
"991" 1 16 31 2 1 1574 0 0 1
"992" 1 16 32 5 1 786 1 1 1
"993" 1 16 33 5 1 1459 1 1 1
"994" 1 16 34 1 1 1352 0 0 1
"995" 1 16 35 6 1 1700 1 1 1
"996" 1 16 36 8 1 1730 1 1 1
"997" 1 16 37 2 1 2282 0 0 1
"998" 1 16 38 7 1 801 1 1 1
"999" 1 16 39 3 1 2314 0 0 1
"1000" 1 16 40 4 1 1120 0 0 1
"1001" 1 16 41 1 1 656 0 0 1
"1002" 1 16 42 4 1 2691 0 0 1
"1003" 1 16 43 8 1 698 1 1 1
"1004" 1 16 44 6 1 808 1 1 1
"1005" 1 16 45 3 1 634 0 0 1
"1006" 1 16 46 2 1 1141 0 0 1
"1007" 1 16 47 7 1 576 1 1 1
"1008" 1 16 48 5 1 844 1 1 1
"1009" 1 16 49 1 1 494 0 0 1
"1010" 1 16 50 6 1 471 1 1 1
"1011" 1 16 51 7 1 532 1 1 1
"1012" 1 16 52 8 1 670 1 1 1
"1013" 1 16 53 5 1 911 1 1 1
"1014" 1 16 54 3 1 599 0 0 1
"1015" 1 16 55 2 1 482 0 0 1
"1016" 1 16 56 4 1 668 0 0 1
"1017" 1 16 57 6 1 405 1 1 1
"1018" 1 16 58 7 1 407 1 1 1
"1019" 1 16 59 3 1 495 0 0 1
"1020" 1 16 60 2 1 541 0 0 1
"1021" 1 16 61 8 1 376 1 1 1
"1022" 1 16 62 1 1 471 0 0 1
"1023" 1 16 63 5 1 417 1 1 1
"1024" 1 16 64 4 1 505 0 0 1
"1025" 1 17 1 5 0 1431 1 0 1
"1026" 1 17 2 7 0 1397 1 0 1
"1027" 1 17 3 3 0 1149 0 1 1
"1028" 1 17 4 4 1 3044 0 0 1
"1029" 1 17 5 2 1 813 0 0 1
"1030" 1 17 6 1 1 706 0 0 1
"1031" 1 17 7 6 1 737 1 1 1
"1032" 1 17 8 8 1 517 1 1 1
"1033" 1 17 9 2 1 1086 0 0 1
"1034" 1 17 10 8 1 1363 1 1 1
"1035" 1 17 11 5 1 4296 1 1 1
"1036" 1 17 12 6 1 1007 1 1 1
"1037" 1 17 13 4 1 584 0 0 1
"1038" 1 17 14 1 1 522 0 0 1
"1039" 1 17 15 3 1 1191 0 0 1
"1040" 1 17 16 7 1 661 1 1 1
"1041" 1 17 17 2 1 722 0 0 1
"1042" 1 17 18 4 1 3341 0 0 1
"1043" 1 17 19 7 1 503 1 1 1
"1044" 1 17 20 3 1 2809 0 0 1
"1045" 1 17 21 6 1 1259 1 1 1
"1046" 1 17 22 1 1 1142 0 0 1
"1047" 1 17 23 5 1 1466 1 1 1
"1048" 1 17 24 8 1 1054 1 1 1
"1049" 1 17 25 1 1 831 0 0 1
"1050" 1 17 26 6 1 1876 1 1 1
"1051" 1 17 27 3 1 1246 0 0 1
"1052" 1 17 28 4 1 1406 0 0 1
"1053" 1 17 29 8 1 636 1 1 1
"1054" 1 17 30 7 1 867 1 1 1
"1055" 1 17 31 2 1 583 0 0 1
"1056" 1 17 32 5 1 2735 1 1 1
"1057" 1 17 33 5 1 798 1 1 1
"1058" 1 17 34 1 1 672 0 0 1
"1059" 1 17 35 6 1 1493 1 1 1
"1060" 1 17 36 8 1 734 1 1 1
"1061" 1 17 37 2 1 804 0 0 1
"1062" 1 17 38 7 1 732 1 1 1
"1063" 1 17 39 3 1 1239 0 0 1
"1064" 1 17 40 4 1 1143 0 0 1
"1065" 1 17 41 1 1 738 0 0 1
"1066" 1 17 42 4 1 1025 0 0 1
"1067" 1 17 43 8 1 610 1 1 1
"1068" 1 17 44 6 1 753 1 1 1
"1069" 1 17 45 3 1 1588 0 0 1
"1070" 1 17 46 2 1 867 0 0 1
"1071" 1 17 47 7 1 651 1 1 1
"1072" 1 17 48 5 1 1119 1 1 1
"1073" 1 17 49 1 1 681 0 0 1
"1074" 1 17 50 6 1 974 1 1 1
"1075" 1 17 51 7 1 1001 1 1 1
"1076" 1 17 52 8 1 607 1 1 1
"1077" 1 17 53 5 1 1402 1 1 1
"1078" 1 17 54 3 1 743 0 0 1
"1079" 1 17 55 2 1 785 0 0 1
"1080" 1 17 56 4 1 1093 0 0 1
"1081" 1 17 57 6 1 1292 1 1 1
"1082" 1 17 58 7 1 777 1 1 1
"1083" 1 17 59 3 1 1368 0 0 1
"1084" 1 17 60 2 1 898 0 0 1
"1085" 1 17 61 8 1 689 1 1 1
"1086" 1 17 62 1 1 851 0 0 1
"1087" 1 17 63 5 1 1135 1 1 1
"1088" 1 17 64 4 1 1534 0 0 1
"1089" 1 18 1 5 0 1483 1 0 1
"1090" 1 18 2 7 1 1017 1 1 1
"1091" 1 18 3 3 0 980 0 1 1
"1092" 1 18 4 4 0 2451 0 1 1
"1093" 1 18 5 2 1 2021 0 0 1
"1094" 1 18 6 1 1 2111 0 0 1
"1095" 1 18 7 6 1 1626 1 1 1
"1096" 1 18 8 8 1 2762 1 1 1
"1097" 1 18 9 2 1 1388 0 0 1
"1098" 1 18 10 8 1 1151 1 1 1
"1099" 1 18 11 5 1 2097 1 1 1
"1100" 1 18 12 6 0 874 1 0 1
"1101" 1 18 13 4 1 2594 0 0 1
"1102" 1 18 14 1 1 695 0 0 1
"1103" 1 18 15 3 1 1881 0 0 1
"1104" 1 18 16 7 1 440 1 1 1
"1105" 1 18 17 2 1 744 0 0 1
"1106" 1 18 18 4 1 1642 0 0 1
"1107" 1 18 19 7 1 486 1 1 1
"1108" 1 18 20 3 0 1154 0 1 1
"1109" 1 18 21 6 1 965 1 1 1
"1110" 1 18 22 1 1 1178 0 0 1
"1111" 1 18 23 5 1 1773 1 1 1
"1112" 1 18 24 8 1 1176 1 1 1
"1113" 1 18 25 1 1 849 0 0 1
"1114" 1 18 26 6 1 1851 1 1 1
"1115" 1 18 27 3 1 1293 0 0 1
"1116" 1 18 28 4 1 1075 0 0 1
"1117" 1 18 29 8 1 544 1 1 1
"1118" 1 18 30 7 1 618 1 1 1
"1119" 1 18 31 2 1 676 0 0 1
"1120" 1 18 32 5 1 1981 1 1 1
"1121" 1 18 33 5 1 1268 1 1 1
"1122" 1 18 34 1 1 623 0 0 1
"1123" 1 18 35 6 1 1057 1 1 1
"1124" 1 18 36 8 1 1356 1 1 1
"1125" 1 18 37 2 1 1167 0 0 1
"1126" 1 18 38 7 1 1104 1 1 1
"1127" 1 18 39 3 1 729 0 0 1
"1128" 1 18 40 4 1 733 0 0 1
"1129" 1 18 41 1 1 652 0 0 1
"1130" 1 18 42 4 1 777 0 0 1
"1131" 1 18 43 8 1 540 1 1 1
"1132" 1 18 44 6 1 833 1 1 1
"1133" 1 18 45 3 1 832 0 0 1
"1134" 1 18 46 2 1 623 0 0 1
"1135" 1 18 47 7 1 583 1 1 1
"1136" 1 18 48 5 1 732 1 1 1
"1137" 1 18 49 1 1 614 0 0 1
"1138" 1 18 50 6 1 1098 1 1 1
"1139" 1 18 51 7 1 656 1 1 1
"1140" 1 18 52 8 1 656 1 1 1
"1141" 1 18 53 5 1 800 1 1 1
"1142" 1 18 54 3 1 622 0 0 1
"1143" 1 18 55 2 1 853 0 0 1
"1144" 1 18 56 4 1 669 0 0 1
"1145" 1 18 57 6 1 1972 1 1 1
"1146" 1 18 58 7 1 679 1 1 1
"1147" 1 18 59 3 1 721 0 0 1
"1148" 1 18 60 2 1 732 0 0 1
"1149" 1 18 61 8 1 736 1 1 1
"1150" 1 18 62 1 1 741 0 0 1
"1151" 1 18 63 5 1 1021 1 1 1
"1152" 1 18 64 4 1 1732 0 0 1
"1153" 1 19 1 5 0 8626 1 0 1
"1154" 1 19 2 7 0 11052 1 0 1
"1155" 1 19 3 3 1 8940 0 0 1
"1156" 1 19 4 4 1 2384 0 0 1
"1157" 1 19 5 2 0 14187 0 1 1
"1158" 1 19 6 1 1 1750 0 0 1
"1159" 1 19 7 6 1 1529 1 1 1
"1160" 1 19 8 8 1 985 1 1 1
"1161" 1 19 9 2 1 1565 0 0 1
"1162" 1 19 10 8 1 1509 1 1 1
"1163" 1 19 11 5 1 4045 1 1 1
"1164" 1 19 12 6 1 2742 1 1 1
"1165" 1 19 13 4 1 776 0 0 1
"1166" 1 19 14 1 1 1274 0 0 1
"1167" 1 19 15 3 1 1621 0 0 1
"1168" 1 19 16 7 1 1061 1 1 1
"1169" 1 19 17 2 1 2627 0 0 1
"1170" 1 19 18 4 1 3090 0 0 1
"1171" 1 19 19 7 1 1064 1 1 1
"1172" 1 19 20 3 1 1502 0 0 1
"1173" 1 19 21 6 1 1395 1 1 1
"1174" 1 19 22 1 1 1996 0 0 1
"1175" 1 19 23 5 1 2176 1 1 1
"1176" 1 19 24 8 1 2227 1 1 1
"1177" 1 19 25 1 1 1248 0 0 1
"1178" 1 19 26 6 1 2184 1 1 1
"1179" 1 19 27 3 1 1346 0 0 1
"1180" 1 19 28 4 1 4190 0 0 1
"1181" 1 19 29 8 1 559 1 1 1
"1182" 1 19 30 7 1 1048 1 1 1
"1183" 1 19 31 2 1 796 0 0 1
"1184" 1 19 32 5 1 1777 1 1 1
"1185" 1 19 33 5 1 1998 1 1 1
"1186" 1 19 34 1 1 3430 0 0 1
"1187" 1 19 35 6 1 1075 1 1 1
"1188" 1 19 36 8 0 918 1 0 1
"1189" 1 19 37 2 1 3848 0 0 1
"1190" 1 19 38 7 1 564 1 1 1
"1191" 1 19 39 3 1 2120 0 0 1
"1192" 1 19 40 4 1 3423 0 0 1
"1193" 1 19 41 1 1 1819 0 0 1
"1194" 1 19 42 4 1 2581 0 0 1
"1195" 1 19 43 8 1 894 1 1 1
"1196" 1 19 44 6 1 1134 1 1 1
"1197" 1 19 45 3 1 1241 0 0 1
"1198" 1 19 46 2 1 1386 0 0 1
"1199" 1 19 47 7 1 1890 1 1 1
"1200" 1 19 48 5 1 1383 1 1 1
"1201" 1 19 49 1 1 454 0 0 1
"1202" 1 19 50 6 1 809 1 1 1
"1203" 1 19 51 7 1 672 1 1 1
"1204" 1 19 52 8 1 897 1 1 1
"1205" 1 19 53 5 1 960 1 1 1
"1206" 1 19 54 3 1 601 0 0 1
"1207" 1 19 55 2 1 1089 0 0 1
"1208" 1 19 56 4 1 2800 0 0 1
"1209" 1 19 57 6 1 1385 1 1 1
"1210" 1 19 58 7 1 813 1 1 1
"1211" 1 19 59 3 1 1165 0 0 1
"1212" 1 19 60 2 1 822 0 0 1
"1213" 1 19 61 8 1 1489 1 1 1
"1214" 1 19 62 1 1 1100 0 0 1
"1215" 1 19 63 5 1 3604 1 1 1
"1216" 1 19 64 4 1 1364 0 0 1
"1217" 1 20 1 5 0 826 1 0 1
"1218" 1 20 2 7 1 841 1 1 1
"1219" 1 20 3 3 1 642 0 0 1
"1220" 1 20 4 4 0 1441 0 1 1
"1221" 1 20 5 2 1 940 0 0 1
"1222" 1 20 6 1 1 520 0 0 1
"1223" 1 20 7 6 1 1068 1 1 1
"1224" 1 20 8 8 1 695 1 1 1
"1225" 1 20 9 2 1 566 0 0 1
"1226" 1 20 10 8 1 435 1 1 1
"1227" 1 20 11 5 0 865 1 0 1
"1228" 1 20 12 6 1 1056 1 1 1
"1229" 1 20 13 4 0 758 0 1 1
"1230" 1 20 14 1 0 749 0 1 1
"1231" 1 20 15 3 1 636 0 0 1
"1232" 1 20 16 7 1 1055 1 1 1
"1233" 1 20 17 2 1 2054 0 0 1
"1234" 1 20 18 4 0 936 0 1 1
"1235" 1 20 19 7 1 760 1 1 1
"1236" 1 20 20 3 1 492 0 0 1
"1237" 1 20 21 6 1 764 1 1 1
"1238" 1 20 22 1 1 381 0 0 1
"1239" 1 20 23 5 1 537 1 1 1
"1240" 1 20 24 8 1 1470 1 1 1
"1241" 1 20 25 1 1 399 0 0 1
"1242" 1 20 26 6 1 542 1 1 1
"1243" 1 20 27 3 1 456 0 0 1
"1244" 1 20 28 4 1 1021 0 0 1
"1245" 1 20 29 8 1 467 1 1 1
"1246" 1 20 30 7 1 851 1 1 1
"1247" 1 20 31 2 1 364 0 0 1
"1248" 1 20 32 5 1 408 1 1 1
"1249" 1 20 33 5 1 1385 1 1 1
"1250" 1 20 34 1 1 495 0 0 1
"1251" 1 20 35 6 1 892 1 1 1
"1252" 1 20 36 8 1 911 1 1 1
"1253" 1 20 37 2 1 452 0 0 1
"1254" 1 20 38 7 1 388 1 1 1
"1255" 1 20 39 3 1 510 0 0 1
"1256" 1 20 40 4 1 778 0 0 1
"1257" 1 20 41 1 1 724 0 0 1
"1258" 1 20 42 4 1 1446 0 0 1
"1259" 1 20 43 8 1 483 1 1 1
"1260" 1 20 44 6 1 852 1 1 1
"1261" 1 20 45 3 1 859 0 0 1
"1262" 1 20 46 2 1 707 0 0 1
"1263" 1 20 47 7 1 639 1 1 1
"1264" 1 20 48 5 1 3568 1 1 1
"1265" 1 20 49 1 1 707 0 0 1
"1266" 1 20 50 6 1 1728 1 1 1
"1267" 1 20 51 7 1 988 1 1 1
"1268" 1 20 52 8 1 1055 1 1 1
"1269" 1 20 53 5 1 1190 1 1 1
"1270" 1 20 54 3 1 813 0 0 1
"1271" 1 20 55 2 1 665 0 0 1
"1272" 1 20 56 4 1 666 0 0 1
"1273" 1 20 57 6 1 1036 1 1 1
"1274" 1 20 58 7 1 773 1 1 1
"1275" 1 20 59 3 1 759 0 0 1
"1276" 1 20 60 2 1 643 0 0 1
"1277" 1 20 61 8 1 550 1 1 1
"1278" 1 20 62 1 1 534 0 0 1
"1279" 1 20 63 5 1 646 1 1 1
"1280" 1 20 64 4 1 575 0 0 1
"1281" 1 21 1 5 1 688 1 1 1
"1282" 1 21 2 7 0 652 1 0 1
"1283" 1 21 3 3 1 751 0 0 1
"1284" 1 21 4 4 1 889 0 0 1
"1285" 1 21 5 2 1 598 0 0 1
"1286" 1 21 6 1 1 444 0 0 1
"1287" 1 21 7 6 1 406 1 1 1
"1288" 1 21 8 8 1 452 1 1 1
"1289" 1 21 9 2 1 505 0 0 1
"1290" 1 21 10 8 1 426 1 1 1
"1291" 1 21 11 5 1 529 1 1 1
"1292" 1 21 12 6 1 624 1 1 1
"1293" 1 21 13 4 1 365 0 0 1
"1294" 1 21 14 1 1 423 0 0 1
"1295" 1 21 15 3 1 407 0 0 1
"1296" 1 21 16 7 1 354 1 1 1
"1297" 1 21 17 2 1 373 0 0 1
"1298" 1 21 18 4 1 500 0 0 1
"1299" 1 21 19 7 1 445 1 1 1
"1300" 1 21 20 3 1 467 0 0 1
"1301" 1 21 21 6 1 1028 1 1 1
"1302" 1 21 22 1 1 364 0 0 1
"1303" 1 21 23 5 1 360 1 1 1
"1304" 1 21 24 8 1 397 1 1 1
"1305" 1 21 25 1 1 355 0 0 1
"1306" 1 21 26 6 1 525 1 1 1
"1307" 1 21 27 3 1 477 0 0 1
"1308" 1 21 28 4 1 355 0 0 1
"1309" 1 21 29 8 1 445 1 1 1
"1310" 1 21 30 7 1 328 1 1 1
"1311" 1 21 31 2 1 310 0 0 1
"1312" 1 21 32 5 1 607 1 1 1
"1313" 1 21 33 5 1 368 1 1 1
"1314" 1 21 34 1 1 542 0 0 1
"1315" 1 21 35 6 1 437 1 1 1
"1316" 1 21 36 8 1 418 1 1 1
"1317" 1 21 37 2 1 370 0 0 1
"1318" 1 21 38 7 1 339 1 1 1
"1319" 1 21 39 3 1 566 0 0 1
"1320" 1 21 40 4 1 385 0 0 1
"1321" 1 21 41 1 1 378 0 0 1
"1322" 1 21 42 4 1 570 0 0 1
"1323" 1 21 43 8 1 499 1 1 1
"1324" 1 21 44 6 1 723 1 1 1
"1325" 1 21 45 3 1 427 0 0 1
"1326" 1 21 46 2 1 440 0 0 1
"1327" 1 21 47 7 1 453 1 1 1
"1328" 1 21 48 5 1 673 1 1 1
"1329" 1 21 49 1 1 408 0 0 1
"1330" 1 21 50 6 1 553 1 1 1
"1331" 1 21 51 7 1 524 1 1 1
"1332" 1 21 52 8 1 433 1 1 1
"1333" 1 21 53 5 1 574 1 1 1
"1334" 1 21 54 3 1 518 0 0 1
"1335" 1 21 55 2 1 460 0 0 1
"1336" 1 21 56 4 1 505 0 0 1
"1337" 1 21 57 6 1 603 1 1 1
"1338" 1 21 58 7 1 355 1 1 1
"1339" 1 21 59 3 1 434 0 0 1
"1340" 1 21 60 2 1 373 0 0 1
"1341" 1 21 61 8 1 428 1 1 1
"1342" 1 21 62 1 1 355 0 0 1
"1343" 1 21 63 5 1 560 1 1 1
"1344" 1 21 64 4 1 578 0 0 1
"1345" 1 22 1 5 0 3149 1 0 1
"1346" 1 22 2 7 1 1083 1 1 1
"1347" 1 22 3 3 0 743 0 1 1
"1348" 1 22 4 4 0 4876 0 1 1
"1349" 1 22 5 2 0 3892 0 1 1
"1350" 1 22 6 1 1 1540 0 0 1
"1351" 1 22 7 6 1 1957 1 1 1
"1352" 1 22 8 8 1 1619 1 1 1
"1353" 1 22 9 2 0 681 0 1 1
"1354" 1 22 10 8 0 1229 1 0 1
"1355" 1 22 11 5 0 1747 1 0 1
"1356" 1 22 12 6 1 1278 1 1 1
"1357" 1 22 13 4 0 986 0 1 1
"1358" 1 22 14 1 1 4084 0 0 1
"1359" 1 22 15 3 1 4564 0 0 1
"1360" 1 22 16 7 1 3045 1 1 1
"1361" 1 22 17 2 1 849 0 0 1
"1362" 1 22 18 4 1 1184 0 0 1
"1363" 1 22 19 7 1 559 1 1 1
"1364" 1 22 20 3 1 878 0 0 1
"1365" 1 22 21 6 1 615 1 1 1
"1366" 1 22 22 1 1 427 0 0 1
"1367" 1 22 23 5 1 818 1 1 1
"1368" 1 22 24 8 1 580 1 1 1
"1369" 1 22 25 1 1 638 0 0 1
"1370" 1 22 26 6 1 491 1 1 1
"1371" 1 22 27 3 1 852 0 0 1
"1372" 1 22 28 4 1 822 0 0 1
"1373" 1 22 29 8 1 577 1 1 1
"1374" 1 22 30 7 1 542 1 1 1
"1375" 1 22 31 2 1 671 0 0 1
"1376" 1 22 32 5 1 745 1 1 1
"1377" 1 22 33 5 1 500 1 1 1
"1378" 1 22 34 1 1 483 0 0 1
"1379" 1 22 35 6 1 449 1 1 1
"1380" 1 22 36 8 1 460 1 1 1
"1381" 1 22 37 2 1 563 0 0 1
"1382" 1 22 38 7 1 527 1 1 1
"1383" 1 22 39 3 1 977 0 0 1
"1384" 1 22 40 4 1 686 0 0 1
"1385" 1 22 41 1 1 605 0 0 1
"1386" 1 22 42 4 1 746 0 0 1
"1387" 1 22 43 8 1 508 1 1 1
"1388" 1 22 44 6 1 501 1 1 1
"1389" 1 22 45 3 1 755 0 0 1
"1390" 1 22 46 2 1 490 0 0 1
"1391" 1 22 47 7 1 563 1 1 1
"1392" 1 22 48 5 1 791 1 1 1
"1393" 1 22 49 1 1 419 0 0 1
"1394" 1 22 50 6 1 429 1 1 1
"1395" 1 22 51 7 1 505 1 1 1
"1396" 1 22 52 8 1 507 1 1 1
"1397" 1 22 53 5 1 478 1 1 1
"1398" 1 22 54 3 1 484 0 0 1
"1399" 1 22 55 2 1 515 0 0 1
"1400" 1 22 56 4 1 760 0 0 1
"1401" 1 22 57 6 1 685 1 1 1
"1402" 1 22 58 7 1 400 1 1 1
"1403" 1 22 59 3 1 621 0 0 1
"1404" 1 22 60 2 1 536 0 0 1
"1405" 1 22 61 8 1 500 1 1 1
"1406" 1 22 62 1 1 479 0 0 1
"1407" 1 22 63 5 1 467 1 1 1
"1408" 1 22 64 4 1 605 0 0 1
"1409" 1 23 1 5 1 2695 1 1 1
"1410" 1 23 2 7 0 1454 1 0 1
"1411" 1 23 3 3 1 1373 0 0 1
"1412" 1 23 4 4 1 865 0 0 1
"1413" 1 23 5 2 1 561 0 0 1
"1414" 1 23 6 1 1 874 0 0 1
"1415" 1 23 7 6 1 465 1 1 1
"1416" 1 23 8 8 1 494 1 1 1
"1417" 1 23 9 2 1 395 0 0 1
"1418" 1 23 10 8 1 412 1 1 1
"1419" 1 23 11 5 1 677 1 1 1
"1420" 1 23 12 6 1 486 1 1 1
"1421" 1 23 13 4 1 462 0 0 1
"1422" 1 23 14 1 1 548 0 0 1
"1423" 1 23 15 3 1 723 0 0 1
"1424" 1 23 16 7 1 434 1 1 1
"1425" 1 23 17 2 1 399 0 0 1
"1426" 1 23 18 4 1 834 0 0 1
"1427" 1 23 19 7 1 415 1 1 1
"1428" 1 23 20 3 1 669 0 0 1
"1429" 1 23 21 6 1 411 1 1 1
"1430" 1 23 22 1 1 401 0 0 1
"1431" 1 23 23 5 1 570 1 1 1
"1432" 1 23 24 8 1 479 1 1 1
"1433" 1 23 25 1 1 432 0 0 1
"1434" 1 23 26 6 1 417 1 1 1
"1435" 1 23 27 3 1 724 0 0 1
"1436" 1 23 28 4 1 824 0 0 1
"1437" 1 23 29 8 1 467 1 1 1
"1438" 1 23 30 7 1 455 1 1 1
"1439" 1 23 31 2 1 470 0 0 1
"1440" 1 23 32 5 1 383 1 1 1
"1441" 1 23 33 5 1 708 1 1 1
"1442" 1 23 34 1 1 436 0 0 1
"1443" 1 23 35 6 1 435 1 1 1
"1444" 1 23 36 8 1 454 1 1 1
"1445" 1 23 37 2 1 449 0 0 1
"1446" 1 23 38 7 1 512 1 1 1
"1447" 1 23 39 3 1 453 0 0 1
"1448" 1 23 40 4 1 566 0 0 1
"1449" 1 23 41 1 1 465 0 0 1
"1450" 1 23 42 4 1 569 0 0 1
"1451" 1 23 43 8 1 460 1 1 1
"1452" 1 23 44 6 1 398 1 1 1
"1453" 1 23 45 3 1 562 0 0 1
"1454" 1 23 46 2 1 482 0 0 1
"1455" 1 23 47 7 1 509 1 1 1
"1456" 1 23 48 5 1 509 1 1 1
"1457" 1 23 49 1 1 432 0 0 1
"1458" 1 23 50 6 1 517 1 1 1
"1459" 1 23 51 7 1 414 1 1 1
"1460" 1 23 52 8 1 457 1 1 1
"1461" 1 23 53 5 1 509 1 1 1
"1462" 1 23 54 3 1 470 0 0 1
"1463" 1 23 55 2 1 503 0 0 1
"1464" 1 23 56 4 1 591 0 0 1
"1465" 1 23 57 6 1 396 1 1 1
"1466" 1 23 58 7 1 497 1 1 1
"1467" 1 23 59 3 1 483 0 0 1
"1468" 1 23 60 2 1 454 0 0 1
"1469" 1 23 61 8 1 380 1 1 1
"1470" 1 23 62 1 1 476 0 0 1
"1471" 1 23 63 5 1 535 1 1 1
"1472" 1 23 64 4 1 435 0 0 1
"1473" 1 24 1 5 1 1277 1 1 1
"1474" 1 24 2 7 1 805 1 1 1
"1475" 1 24 3 3 1 797 0 0 1
"1476" 1 24 4 4 1 702 0 0 1
"1477" 1 24 5 2 1 628 0 0 1
"1478" 1 24 6 1 1 1531 0 0 1
"1479" 1 24 7 6 1 1000 1 1 1
"1480" 1 24 8 8 1 577 1 1 1
"1481" 1 24 9 2 1 517 0 0 1
"1482" 1 24 10 8 1 669 1 1 1
"1483" 1 24 11 5 1 672 1 1 1
"1484" 1 24 12 6 1 911 1 1 1
"1485" 1 24 13 4 1 622 0 0 1
"1486" 1 24 14 1 1 483 0 0 1
"1487" 1 24 15 3 1 775 0 0 1
"1488" 1 24 16 7 1 395 1 1 1
"1489" 1 24 17 2 1 501 0 0 1
"1490" 1 24 18 4 1 718 0 0 1
"1491" 1 24 19 7 1 438 1 1 1
"1492" 1 24 20 3 1 412 0 0 1
"1493" 1 24 21 6 1 877 1 1 1
"1494" 1 24 22 1 1 433 0 0 1
"1495" 1 24 23 5 1 664 1 1 1
"1496" 1 24 24 8 1 497 1 1 1
"1497" 1 24 25 1 1 518 0 0 1
"1498" 1 24 26 6 1 564 1 1 1
"1499" 1 24 27 3 1 725 0 0 1
"1500" 1 24 28 4 1 554 0 0 1
"1501" 1 24 29 8 1 460 1 1 1
"1502" 1 24 30 7 1 498 1 1 1
"1503" 1 24 31 2 1 440 0 0 1
"1504" 1 24 32 5 1 712 1 1 1
"1505" 1 24 33 5 1 772 1 1 1
"1506" 1 24 34 1 1 427 0 0 1
"1507" 1 24 35 6 1 764 1 1 1
"1508" 1 24 36 8 1 475 1 1 1
"1509" 1 24 37 2 1 436 0 0 1
"1510" 1 24 38 7 1 386 1 1 1
"1511" 1 24 39 3 1 551 0 0 1
"1512" 1 24 40 4 1 709 0 0 1
"1513" 1 24 41 1 1 406 0 0 1
"1514" 1 24 42 4 1 652 0 0 1
"1515" 1 24 43 8 1 514 1 1 1
"1516" 1 24 44 6 1 788 1 1 1
"1517" 1 24 45 3 1 544 0 0 1
"1518" 1 24 46 2 1 426 0 0 1
"1519" 1 24 47 7 1 449 1 1 1
"1520" 1 24 48 5 1 1038 1 1 1
"1521" 1 24 49 1 1 440 0 0 1
"1522" 1 24 50 6 1 687 1 1 1
"1523" 1 24 51 7 1 429 1 1 1
"1524" 1 24 52 8 1 393 1 1 1
"1525" 1 24 53 5 1 999 1 1 1
"1526" 1 24 54 3 1 757 0 0 1
"1527" 1 24 55 2 1 421 0 0 1
"1528" 1 24 56 4 1 456 0 0 1
"1529" 1 24 57 6 1 862 1 1 1
"1530" 1 24 58 7 1 403 1 1 1
"1531" 1 24 59 3 1 564 0 0 1
"1532" 1 24 60 2 1 411 0 0 1
"1533" 1 24 61 8 1 443 1 1 1
"1534" 1 24 62 1 1 427 0 0 1
"1535" 1 24 63 5 1 843 1 1 1
"1536" 1 24 64 4 1 634 0 0 1
"1537" 1 25 1 5 1 6392 1 1 1
"1538" 1 25 2 7 1 5040 1 1 1
"1539" 1 25 3 3 1 14064 0 0 1
"1540" 1 25 4 4 1 1409 0 0 1
"1541" 1 25 5 2 1 8923 0 0 1
"1542" 1 25 6 1 1 3532 0 0 1
"1543" 1 25 7 6 1 2415 1 1 1
"1544" 1 25 8 8 1 1897 1 1 1
"1545" 1 25 9 2 1 553 0 0 1
"1546" 1 25 10 8 1 881 1 1 1
"1547" 1 25 11 5 1 1313 1 1 1
"1548" 1 25 12 6 1 1326 1 1 1
"1549" 1 25 13 4 1 776 0 0 1
"1550" 1 25 14 1 1 666 0 0 1
"1551" 1 25 15 3 1 1159 0 0 1
"1552" 1 25 16 7 1 777 1 1 1
"1553" 1 25 17 2 1 633 0 0 1
"1554" 1 25 18 4 1 769 0 0 1
"1555" 1 25 19 7 1 549 1 1 1
"1556" 1 25 20 3 1 687 0 0 1
"1557" 1 25 21 6 1 592 1 1 1
"1558" 1 25 22 1 1 392 0 0 1
"1559" 1 25 23 5 1 494 1 1 1
"1560" 1 25 24 8 1 523 1 1 1
"1561" 1 25 25 1 1 473 0 0 1
"1562" 1 25 26 6 1 595 1 1 1
"1563" 1 25 27 3 1 535 0 0 1
"1564" 1 25 28 4 1 567 0 0 1
"1565" 1 25 29 8 1 576 1 1 1
"1566" 1 25 30 7 1 545 1 1 1
"1567" 1 25 31 2 1 462 0 0 1
"1568" 1 25 32 5 1 538 1 1 1
"1569" 1 25 33 5 1 528 1 1 1
"1570" 1 25 34 1 1 664 0 0 1
"1571" 1 25 35 6 1 581 1 1 1
"1572" 1 25 36 8 1 448 1 1 1
"1573" 1 25 37 2 1 498 0 0 1
"1574" 1 25 38 7 1 460 1 1 1
"1575" 1 25 39 3 1 549 0 0 1
"1576" 1 25 40 4 1 576 0 0 1
"1577" 1 25 41 1 1 528 0 0 1
"1578" 1 25 42 4 1 561 0 0 1
"1579" 1 25 43 8 1 561 1 1 1
"1580" 1 25 44 6 1 576 1 1 1
"1581" 1 25 45 3 1 591 0 0 1
"1582" 1 25 46 2 1 565 0 0 1
"1583" 1 25 47 7 1 534 1 1 1
"1584" 1 25 48 5 1 635 1 1 1
"1585" 1 25 49 1 1 652 0 0 1
"1586" 1 25 50 6 1 1310 1 1 1
"1587" 1 25 51 7 1 617 1 1 1
"1588" 1 25 52 8 1 564 1 1 1
"1589" 1 25 53 5 1 533 1 1 1
"1590" 1 25 54 3 1 530 0 0 1
"1591" 1 25 55 2 1 553 0 0 1
"1592" 1 25 56 4 1 585 0 0 1
"1593" 1 25 57 6 1 629 1 1 1
"1594" 1 25 58 7 1 476 1 1 1
"1595" 1 25 59 3 1 576 0 0 1
"1596" 1 25 60 2 1 446 0 0 1
"1597" 1 25 61 8 1 551 1 1 1
"1598" 1 25 62 1 1 476 0 0 1
"1599" 1 25 63 5 1 740 1 1 1
"1600" 1 25 64 4 1 531 0 0 1
"1601" 1 26 1 5 1 2017 1 1 1
"1602" 1 26 2 7 0 1028 1 0 1
"1603" 1 26 3 3 0 1966 0 1 1
"1604" 1 26 4 4 1 2588 0 0 1
"1605" 1 26 5 2 0 1878 0 1 1
"1606" 1 26 6 1 1 1329 0 0 1
"1607" 1 26 7 6 0 1525 1 0 1
"1608" 1 26 8 8 1 1676 1 1 1
"1609" 1 26 9 2 1 723 0 0 1
"1610" 1 26 10 8 1 648 1 1 1
"1611" 1 26 11 5 1 1537 1 1 1
"1612" 1 26 12 6 1 974 1 1 1
"1613" 1 26 13 4 1 901 0 0 1
"1614" 1 26 14 1 1 572 0 0 1
"1615" 1 26 15 3 1 489 0 0 1
"1616" 1 26 16 7 1 562 1 1 1
"1617" 1 26 17 2 1 448 0 0 1
"1618" 1 26 18 4 1 577 0 0 1
"1619" 1 26 19 7 1 456 1 1 1
"1620" 1 26 20 3 1 491 0 0 1
"1621" 1 26 21 6 1 944 1 1 1
"1622" 1 26 22 1 1 461 0 0 1
"1623" 1 26 23 5 1 808 1 1 1
"1624" 1 26 24 8 1 582 1 1 1
"1625" 1 26 25 1 1 588 0 0 1
"1626" 1 26 26 6 1 605 1 1 1
"1627" 1 26 27 3 1 834 0 0 1
"1628" 1 26 28 4 1 617 0 0 1
"1629" 1 26 29 8 1 406 1 1 1
"1630" 1 26 30 7 1 389 1 1 1
"1631" 1 26 31 2 1 524 0 0 1
"1632" 1 26 32 5 1 750 1 1 1
"1633" 1 26 33 5 1 609 1 1 1
"1634" 1 26 34 1 1 429 0 0 1
"1635" 1 26 35 6 1 803 1 1 1
"1636" 1 26 36 8 1 431 1 1 1
"1637" 1 26 37 2 1 713 0 0 1
"1638" 1 26 38 7 1 495 1 1 1
"1639" 1 26 39 3 1 514 0 0 1
"1640" 1 26 40 4 1 556 0 0 1
"1641" 1 26 41 1 1 543 0 0 1
"1642" 1 26 42 4 1 616 0 0 1
"1643" 1 26 43 8 1 610 1 1 1
"1644" 1 26 44 6 1 894 1 1 1
"1645" 1 26 45 3 1 508 0 0 1
"1646" 1 26 46 2 1 528 0 0 1
"1647" 1 26 47 7 1 484 1 1 1
"1648" 1 26 48 5 1 564 1 1 1
"1649" 1 26 49 1 1 489 0 0 1
"1650" 1 26 50 6 1 1353 1 1 1
"1651" 1 26 51 7 1 488 1 1 1
"1652" 1 26 52 8 1 487 1 1 1
"1653" 1 26 53 5 1 805 1 1 1
"1654" 1 26 54 3 1 624 0 0 1
"1655" 1 26 55 2 1 533 0 0 1
"1656" 1 26 56 4 1 588 0 0 1
"1657" 1 26 57 6 1 832 1 1 1
"1658" 1 26 58 7 1 493 1 1 1
"1659" 1 26 59 3 1 400 0 0 1
"1660" 1 26 60 2 1 1782 0 0 1
"1661" 1 26 61 8 1 657 1 1 1
"1662" 1 26 62 1 1 528 0 0 1
"1663" 1 26 63 5 1 1305 1 1 1
"1664" 1 26 64 4 1 1483 0 0 1
"1665" 1 27 1 5 1 2386 1 1 1
"1666" 1 27 2 7 1 1211 1 1 1
"1667" 1 27 3 3 1 1310 0 0 1
"1668" 1 27 4 4 1 806 0 0 1
"1669" 1 27 5 2 1 696 0 0 1
"1670" 1 27 6 1 1 447 0 0 1
"1671" 1 27 7 6 1 992 1 1 1
"1672" 1 27 8 8 1 1456 1 1 1
"1673" 1 27 9 2 1 921 0 0 1
"1674" 1 27 10 8 1 860 1 1 1
"1675" 1 27 11 5 1 802 1 1 1
"1676" 1 27 12 6 1 534 1 1 1
"1677" 1 27 13 4 1 899 0 0 1
"1678" 1 27 14 1 1 703 0 0 1
"1679" 1 27 15 3 1 563 0 0 1
"1680" 1 27 16 7 1 480 1 1 1
"1681" 1 27 17 2 1 513 0 0 1
"1682" 1 27 18 4 1 902 0 0 1
"1683" 1 27 19 7 1 395 1 1 1
"1684" 1 27 20 3 1 561 0 0 1
"1685" 1 27 21 6 1 447 1 1 1
"1686" 1 27 22 1 1 546 0 0 1
"1687" 1 27 23 5 1 475 1 1 1
"1688" 1 27 24 8 1 775 1 1 1
"1689" 1 27 25 1 1 529 0 0 1
"1690" 1 27 26 6 1 792 1 1 1
"1691" 1 27 27 3 1 527 0 0 1
"1692" 1 27 28 4 1 1071 0 0 1
"1693" 1 27 29 8 1 368 1 1 1
"1694" 1 27 30 7 1 444 1 1 1
"1695" 1 27 31 2 1 525 0 0 1
"1696" 1 27 32 5 1 482 1 1 1
"1697" 1 27 33 5 1 497 1 1 1
"1698" 1 27 34 1 1 562 0 0 1
"1699" 1 27 35 6 1 530 1 1 1
"1700" 1 27 36 8 1 587 1 1 1
"1701" 1 27 37 2 1 469 0 0 1
"1702" 1 27 38 7 1 388 1 1 1
"1703" 1 27 39 3 1 420 0 0 1
"1704" 1 27 40 4 1 665 0 0 1
"1705" 1 27 41 1 1 612 0 0 1
"1706" 1 27 42 4 1 799 0 0 1
"1707" 1 27 43 8 1 527 1 1 1
"1708" 1 27 44 6 1 747 1 1 1
"1709" 1 27 45 3 1 646 0 0 1
"1710" 1 27 46 2 1 582 0 0 1
"1711" 1 27 47 7 1 346 1 1 1
"1712" 1 27 48 5 1 594 1 1 1
"1713" 1 27 49 1 1 1118 0 0 1
"1714" 1 27 50 6 1 488 1 1 1
"1715" 1 27 51 7 1 427 1 1 1
"1716" 1 27 52 8 1 395 1 1 1
"1717" 1 27 53 5 1 451 1 1 1
"1718" 1 27 54 3 1 431 0 0 1
"1719" 1 27 55 2 1 569 0 0 1
"1720" 1 27 56 4 1 739 0 0 1
"1721" 1 27 57 6 1 411 1 1 1
"1722" 1 27 58 7 1 482 1 1 1
"1723" 1 27 59 3 1 544 0 0 1
"1724" 1 27 60 2 1 603 0 0 1
"1725" 1 27 61 8 1 457 1 1 1
"1726" 1 27 62 1 1 551 0 0 1
"1727" 1 27 63 5 1 468 1 1 1
"1728" 1 27 64 4 1 544 0 0 1
"1729" 1 28 1 5 1 1100 1 1 1
"1730" 1 28 2 7 1 1190 1 1 1
"1731" 1 28 3 3 1 745 0 0 1
"1732" 1 28 4 4 1 1655 0 0 1
"1733" 1 28 5 2 1 827 0 0 1
"1734" 1 28 6 1 0 999 0 1 1
"1735" 1 28 7 6 1 1300 1 1 1
"1736" 1 28 8 8 1 741 1 1 1
"1737" 1 28 9 2 1 666 0 0 1
"1738" 1 28 10 8 1 501 1 1 1
"1739" 1 28 11 5 1 1485 1 1 1
"1740" 1 28 12 6 1 1476 1 1 1
"1741" 1 28 13 4 1 895 0 0 1
"1742" 1 28 14 1 1 601 0 0 1
"1743" 1 28 15 3 1 1327 0 0 1
"1744" 1 28 16 7 1 413 1 1 1
"1745" 1 28 17 2 1 433 0 0 1
"1746" 1 28 18 4 1 1398 0 0 1
"1747" 1 28 19 7 1 445 1 1 1
"1748" 1 28 20 3 1 599 0 0 1
"1749" 1 28 21 6 1 651 1 1 1
"1750" 1 28 22 1 1 459 0 0 1
"1751" 1 28 23 5 1 549 1 1 1
"1752" 1 28 24 8 0 833 1 0 1
"1753" 1 28 25 1 1 560 0 0 1
"1754" 1 28 26 6 1 483 1 1 1
"1755" 1 28 27 3 1 1168 0 0 1
"1756" 1 28 28 4 1 751 0 0 1
"1757" 1 28 29 8 1 517 1 1 1
"1758" 1 28 30 7 1 649 1 1 1
"1759" 1 28 31 2 1 562 0 0 1
"1760" 1 28 32 5 1 1059 1 1 1
"1761" 1 28 33 5 1 509 1 1 1
"1762" 1 28 34 1 1 501 0 0 1
"1763" 1 28 35 6 1 752 1 1 1
"1764" 1 28 36 8 1 468 1 1 1
"1765" 1 28 37 2 1 488 0 0 1
"1766" 1 28 38 7 1 502 1 1 1
"1767" 1 28 39 3 1 498 0 0 1
"1768" 1 28 40 4 1 3631 0 0 1
"1769" 1 28 41 1 1 660 0 0 1
"1770" 1 28 42 4 1 574 0 0 1
"1771" 1 28 43 8 1 835 1 1 1
"1772" 1 28 44 6 1 609 1 1 1
"1773" 1 28 45 3 1 580 0 0 1
"1774" 1 28 46 2 1 501 0 0 1
"1775" 1 28 47 7 1 486 1 1 1
"1776" 1 28 48 5 1 625 1 1 1
"1777" 1 28 49 1 1 966 0 0 1
"1778" 1 28 50 6 1 434 1 1 1
"1779" 1 28 51 7 1 607 1 1 1
"1780" 1 28 52 8 1 507 1 1 1
"1781" 1 28 53 5 1 498 1 1 1
"1782" 1 28 54 3 1 605 0 0 1
"1783" 1 28 55 2 1 1214 0 0 1
"1784" 1 28 56 4 1 568 0 0 1
"1785" 1 28 57 6 1 838 1 1 1
"1786" 1 28 58 7 1 517 1 1 1
"1787" 1 28 59 3 1 781 0 0 1
"1788" 1 28 60 2 1 667 0 0 1
"1789" 1 28 61 8 1 1104 1 1 1
"1790" 1 28 62 1 1 544 0 0 1
"1791" 1 28 63 5 1 1193 1 1 1
"1792" 1 28 64 4 1 564 0 0 1
"1793" 1 29 1 5 1 1204 1 1 1
"1794" 1 29 2 7 0 1676 1 0 1
"1795" 1 29 3 3 1 2257 0 0 1
"1796" 1 29 4 4 0 1868 0 1 1
"1797" 1 29 5 2 1 1333 0 0 1
"1798" 1 29 6 1 1 1778 0 0 1
"1799" 1 29 7 6 1 947 1 1 1
"1800" 1 29 8 8 1 1851 1 1 1
"1801" 1 29 9 2 1 1298 0 0 1
"1802" 1 29 10 8 0 957 1 0 1
"1803" 1 29 11 5 1 2978 1 1 1
"1804" 1 29 12 6 0 1795 1 0 1
"1805" 1 29 13 4 1 2395 0 0 1
"1806" 1 29 14 1 1 1625 0 0 1
"1807" 1 29 15 3 0 1300 0 1 1
"1808" 1 29 16 7 0 1073 1 0 1
"1809" 1 29 17 2 1 1181 0 0 1
"1810" 1 29 18 4 0 1094 0 1 1
"1811" 1 29 19 7 1 1566 1 1 1
"1812" 1 29 20 3 0 2425 0 1 1
"1813" 1 29 21 6 1 801 1 1 1
"1814" 1 29 22 1 1 636 0 0 1
"1815" 1 29 23 5 1 1352 1 1 1
"1816" 1 29 24 8 0 999 1 0 1
"1817" 1 29 25 1 1 1121 0 0 1
"1818" 1 29 26 6 1 1203 1 1 1
"1819" 1 29 27 3 1 1163 0 0 1
"1820" 1 29 28 4 0 3003 0 1 1
"1821" 1 29 29 8 1 601 1 1 1
"1822" 1 29 30 7 0 2764 1 0 1
"1823" 1 29 31 2 1 916 0 0 1
"1824" 1 29 32 5 1 1527 1 1 1
"1825" 1 29 33 5 1 1085 1 1 1
"1826" 1 29 34 1 1 902 0 0 1
"1827" 1 29 35 6 1 3244 1 1 1
"1828" 1 29 36 8 0 742 1 0 1
"1829" 1 29 37 2 1 493 0 0 1
"1830" 1 29 38 7 1 660 1 1 1
"1831" 1 29 39 3 0 2513 0 1 1
"1832" 1 29 40 4 1 1024 0 0 1
"1833" 1 29 41 1 1 798 0 0 1
"1834" 1 29 42 4 0 3303 0 1 1
"1835" 1 29 43 8 1 1014 1 1 1
"1836" 1 29 44 6 1 2783 1 1 1
"1837" 1 29 45 3 0 5490 0 1 1
"1838" 1 29 46 2 1 1909 0 0 1
"1839" 1 29 47 7 1 752 1 1 1
"1840" 1 29 48 5 1 1937 1 1 1
"1841" 1 29 49 1 1 847 0 0 1
"1842" 1 29 50 6 1 960 1 1 1
"1843" 1 29 51 7 1 850 1 1 1
"1844" 1 29 52 8 1 716 1 1 1
"1845" 1 29 53 5 1 2257 1 1 1
"1846" 1 29 54 3 1 1638 0 0 1
"1847" 1 29 55 2 1 856 0 0 1
"1848" 1 29 56 4 1 2190 0 0 1
"1849" 1 29 57 6 1 692 1 1 1
"1850" 1 29 58 7 1 687 1 1 1
"1851" 1 29 59 3 1 1572 0 0 1
"1852" 1 29 60 2 1 701 0 0 1
"1853" 1 29 61 8 1 1434 1 1 1
"1854" 1 29 62 1 1 730 0 0 1
"1855" 1 29 63 5 1 999 1 1 1
"1856" 1 29 64 4 1 1219 0 0 1
"1857" 1 30 1 5 1 1020 1 1 1
"1858" 1 30 2 7 1 866 1 1 1
"1859" 1 30 3 3 1 705 0 0 1
"1860" 1 30 4 4 1 939 0 0 1
"1861" 1 30 5 2 1 598 0 0 1
"1862" 1 30 6 1 1 591 0 0 1
"1863" 1 30 7 6 1 822 1 1 1
"1864" 1 30 8 8 1 584 1 1 1
"1865" 1 30 9 2 1 440 0 0 1
"1866" 1 30 10 8 1 517 1 1 1
"1867" 1 30 11 5 1 880 1 1 1
"1868" 1 30 12 6 1 751 1 1 1
"1869" 1 30 13 4 1 592 0 0 1
"1870" 1 30 14 1 1 583 0 0 1
"1871" 1 30 15 3 1 613 0 0 1
"1872" 1 30 16 7 1 446 1 1 1
"1873" 1 30 17 2 1 379 0 0 1
"1874" 1 30 18 4 1 745 0 0 1
"1875" 1 30 19 7 1 550 1 1 1
"1876" 1 30 20 3 1 683 0 0 1
"1877" 1 30 21 6 1 710 1 1 1
"1878" 1 30 22 1 1 525 0 0 1
"1879" 1 30 23 5 1 533 1 1 1
"1880" 1 30 24 8 1 640 1 1 1
"1881" 1 30 25 1 1 517 0 0 1
"1882" 1 30 26 6 1 747 1 1 1
"1883" 1 30 27 3 1 848 0 0 1
"1884" 1 30 28 4 1 743 0 0 1
"1885" 1 30 29 8 1 633 1 1 1
"1886" 1 30 30 7 1 652 1 1 1
"1887" 1 30 31 2 1 550 0 0 1
"1888" 1 30 32 5 1 702 1 1 1
"1889" 1 30 33 5 1 496 1 1 1
"1890" 1 30 34 1 1 526 0 0 1
"1891" 1 30 35 6 1 719 1 1 1
"1892" 1 30 36 8 1 591 1 1 1
"1893" 1 30 37 2 1 489 0 0 1
"1894" 1 30 38 7 1 501 1 1 1
"1895" 1 30 39 3 1 674 0 0 1
"1896" 1 30 40 4 1 719 0 0 1
"1897" 1 30 41 1 1 615 0 0 1
"1898" 1 30 42 4 1 544 0 0 1
"1899" 1 30 43 8 1 521 1 1 1
"1900" 1 30 44 6 1 695 1 1 1
"1901" 1 30 45 3 1 499 0 0 1
"1902" 1 30 46 2 1 625 0 0 1
"1903" 1 30 47 7 1 502 1 1 1
"1904" 1 30 48 5 1 783 1 1 1
"1905" 1 30 49 1 1 554 0 0 1
"1906" 1 30 50 6 1 652 1 1 1
"1907" 1 30 51 7 1 575 1 1 1
"1908" 1 30 52 8 1 546 1 1 1
"1909" 1 30 53 5 1 938 1 1 1
"1910" 1 30 54 3 1 737 0 0 1
"1911" 1 30 55 2 1 637 0 0 1
"1912" 1 30 56 4 1 652 0 0 1
"1913" 1 30 57 6 1 563 1 1 1
"1914" 1 30 58 7 1 552 1 1 1
"1915" 1 30 59 3 1 707 0 0 1
"1916" 1 30 60 2 1 621 0 0 1
"1917" 1 30 61 8 1 470 1 1 1
"1918" 1 30 62 1 1 481 0 0 1
"1919" 1 30 63 5 1 622 1 1 1
"1920" 1 30 64 4 1 644 0 0 1
"1921" 1 31 1 5 1 1597 1 1 1
"1922" 1 31 2 7 1 2115 1 1 1
"1923" 1 31 3 3 1 900 0 0 1
"1924" 1 31 4 4 1 1398 0 0 1
"1925" 1 31 5 2 1 1274 0 0 1
"1926" 1 31 6 1 1 1212 0 0 1
"1927" 1 31 7 6 1 1058 1 1 1
"1928" 1 31 8 8 1 757 1 1 1
"1929" 1 31 9 2 1 916 0 0 1
"1930" 1 31 10 8 1 763 1 1 1
"1931" 1 31 11 5 1 1291 1 1 1
"1932" 1 31 12 6 1 1214 1 1 1
"1933" 1 31 13 4 1 819 0 0 1
"1934" 1 31 14 1 1 682 0 0 1
"1935" 1 31 15 3 1 569 0 0 1
"1936" 1 31 16 7 1 427 1 1 1
"1937" 1 31 17 2 1 545 0 0 1
"1938" 1 31 18 4 1 1081 0 0 1
"1939" 1 31 19 7 1 422 1 1 1
"1940" 1 31 20 3 1 878 0 0 1
"1941" 1 31 21 6 1 2078 1 1 1
"1942" 1 31 22 1 1 511 0 0 1
"1943" 1 31 23 5 1 1444 1 1 1
"1944" 1 31 24 8 1 631 1 1 1
"1945" 1 31 25 1 1 621 0 0 1
"1946" 1 31 26 6 1 759 1 1 1
"1947" 1 31 27 3 1 822 0 0 1
"1948" 1 31 28 4 1 668 0 0 1
"1949" 1 31 29 8 1 572 1 1 1
"1950" 1 31 30 7 1 888 1 1 1
"1951" 1 31 31 2 1 626 0 0 1
"1952" 1 31 32 5 1 725 1 1 1
"1953" 1 31 33 5 1 647 1 1 1
"1954" 1 31 34 1 1 602 0 0 1
"1955" 1 31 35 6 1 532 1 1 1
"1956" 1 31 36 8 1 547 1 1 1
"1957" 1 31 37 2 1 565 0 0 1
"1958" 1 31 38 7 1 598 1 1 1
"1959" 1 31 39 3 1 637 0 0 1
"1960" 1 31 40 4 1 874 0 0 1
"1961" 1 31 41 1 1 594 0 0 1
"1962" 1 31 42 4 1 887 0 0 1
"1963" 1 31 43 8 1 602 1 1 1
"1964" 1 31 44 6 1 492 1 1 1
"1965" 1 31 45 3 1 570 0 0 1
"1966" 1 31 46 2 1 445 0 0 1
"1967" 1 31 47 7 1 600 1 1 1
"1968" 1 31 48 5 1 610 1 1 1
"1969" 1 31 49 1 1 401 0 0 1
"1970" 1 31 50 6 1 853 1 1 1
"1971" 1 31 51 7 1 563 1 1 1
"1972" 1 31 52 8 1 501 1 1 1
"1973" 1 31 53 5 1 644 1 1 1
"1974" 1 31 54 3 1 457 0 0 1
"1975" 1 31 55 2 1 451 0 0 1
"1976" 1 31 56 4 1 440 0 0 1
"1977" 1 31 57 6 1 1175 1 1 1
"1978" 1 31 58 7 1 652 1 1 1
"1979" 1 31 59 3 1 611 0 0 1
"1980" 1 31 60 2 1 509 0 0 1
"1981" 1 31 61 8 1 575 1 1 1
"1982" 1 31 62 1 1 623 0 0 1
"1983" 1 31 63 5 1 656 1 1 1
"1984" 1 31 64 4 1 958 0 0 1
"1985" 1 32 1 5 1 1216 1 1 1
"1986" 1 32 2 7 1 2002 1 1 1
"1987" 1 32 3 3 0 1305 0 1 1
"1988" 1 32 4 4 0 1654 0 1 1
"1989" 1 32 5 2 1 1810 0 0 1
"1990" 1 32 6 1 0 837 0 1 1
"1991" 1 32 7 6 0 1012 1 0 1
"1992" 1 32 8 8 0 2704 1 0 1
"1993" 1 32 9 2 0 2110 0 1 1
"1994" 1 32 10 8 1 891 1 1 1
"1995" 1 32 11 5 1 1055 1 1 1
"1996" 1 32 12 6 1 1043 1 1 1
"1997" 1 32 13 4 1 722 0 0 1
"1998" 1 32 14 1 1 509 0 0 1
"1999" 1 32 15 3 1 621 0 0 1
"2000" 1 32 16 7 1 609 1 1 1
"2001" 1 32 17 2 1 532 0 0 1
"2002" 1 32 18 4 1 566 0 0 1
"2003" 1 32 19 7 1 513 1 1 1
"2004" 1 32 20 3 1 937 0 0 1
"2005" 1 32 21 6 1 775 1 1 1
"2006" 1 32 22 1 1 540 0 0 1
"2007" 1 32 23 5 1 492 1 1 1
"2008" 1 32 24 8 1 563 1 1 1
"2009" 1 32 25 1 1 496 0 0 1
"2010" 1 32 26 6 1 517 1 1 1
"2011" 1 32 27 3 1 526 0 0 1
"2012" 1 32 28 4 1 684 0 0 1
"2013" 1 32 29 8 1 485 1 1 1
"2014" 1 32 30 7 1 616 1 1 1
"2015" 1 32 31 2 1 433 0 0 1
"2016" 1 32 32 5 1 751 1 1 1
"2017" 1 32 33 5 1 689 1 1 1
"2018" 1 32 34 1 1 405 0 0 1
"2019" 1 32 35 6 1 717 1 1 1
"2020" 1 32 36 8 1 488 1 1 1
"2021" 1 32 37 2 1 466 0 0 1
"2022" 1 32 38 7 1 572 1 1 1
"2023" 1 32 39 3 1 495 0 0 1
"2024" 1 32 40 4 1 791 0 0 1
"2025" 1 32 41 1 1 452 0 0 1
"2026" 1 32 42 4 1 502 0 0 1
"2027" 1 32 43 8 1 486 1 1 1
"2028" 1 32 44 6 1 817 1 1 1
"2029" 1 32 45 3 1 441 0 0 1
"2030" 1 32 46 2 1 558 0 0 1
"2031" 1 32 47 7 1 561 1 1 1
"2032" 1 32 48 5 1 685 1 1 1
"2033" 1 32 49 1 1 551 0 0 1
"2034" 1 32 50 6 1 493 1 1 1
"2035" 1 32 51 7 1 519 1 1 1
"2036" 1 32 52 8 1 471 1 1 1
"2037" 1 32 53 5 1 834 1 1 1
"2038" 1 32 54 3 1 660 0 0 1
"2039" 1 32 55 2 1 480 0 0 1
"2040" 1 32 56 4 1 515 0 0 1
"2041" 1 32 57 6 1 747 1 1 1
"2042" 1 32 58 7 1 516 1 1 1
"2043" 1 32 59 3 1 586 0 0 1
"2044" 1 32 60 2 1 565 0 0 1
"2045" 1 32 61 8 1 601 1 1 1
"2046" 1 32 62 1 1 565 0 0 1
"2047" 1 32 63 5 1 692 1 1 1
"2048" 1 32 64 4 1 958 0 0 1
"2049" 1 33 1 5 1 1569 1 1 1
"2050" 1 33 2 7 1 698 1 1 1
"2051" 1 33 3 3 1 844 0 0 1
"2052" 1 33 4 4 1 764 0 0 1
"2053" 1 33 5 2 1 499 0 0 1
"2054" 1 33 6 1 1 387 0 0 1
"2055" 1 33 7 6 1 799 1 1 1
"2056" 1 33 8 8 1 653 1 1 1
"2057" 1 33 9 2 1 335 0 0 1
"2058" 1 33 10 8 1 325 1 1 1
"2059" 1 33 11 5 1 1523 1 1 1
"2060" 1 33 12 6 1 645 1 1 1
"2061" 1 33 13 4 1 581 0 0 1
"2062" 1 33 14 1 1 838 0 0 1
"2063" 1 33 15 3 1 575 0 0 1
"2064" 1 33 16 7 1 469 1 1 1
"2065" 1 33 17 2 1 654 0 0 1
"2066" 1 33 18 4 1 779 0 0 1
"2067" 1 33 19 7 1 526 1 1 1
"2068" 1 33 20 3 1 671 0 0 1
"2069" 1 33 21 6 1 624 1 1 1
"2070" 1 33 22 1 1 655 0 0 1
"2071" 1 33 23 5 1 653 1 1 1
"2072" 1 33 24 8 1 499 1 1 1
"2073" 1 33 25 1 1 433 0 0 1
"2074" 1 33 26 6 1 938 1 1 1
"2075" 1 33 27 3 1 648 0 0 1
"2076" 1 33 28 4 1 917 0 0 1
"2077" 1 33 29 8 1 543 1 1 1
"2078" 1 33 30 7 1 653 1 1 1
"2079" 1 33 31 2 1 493 0 0 1
"2080" 1 33 32 5 1 738 1 1 1
"2081" 1 33 33 5 1 918 1 1 1
"2082" 1 33 34 1 1 532 0 0 1
"2083" 1 33 35 6 1 669 1 1 1
"2084" 1 33 36 8 1 599 1 1 1
"2085" 1 33 37 2 1 643 0 0 1
"2086" 1 33 38 7 1 451 1 1 1
"2087" 1 33 39 3 1 605 0 0 1
"2088" 1 33 40 4 1 974 0 0 1
"2089" 1 33 41 1 1 1185 0 0 1
"2090" 1 33 42 4 1 841 0 0 1
"2091" 1 33 43 8 1 531 1 1 1
"2092" 1 33 44 6 1 496 1 1 1
"2093" 1 33 45 3 1 553 0 0 1
"2094" 1 33 46 2 1 475 0 0 1
"2095" 1 33 47 7 1 426 1 1 1
"2096" 1 33 48 5 1 574 1 1 1
"2097" 1 33 49 1 1 468 0 0 1
"2098" 1 33 50 6 1 360 1 1 1
"2099" 1 33 51 7 1 519 1 1 1
"2100" 1 33 52 8 1 479 1 1 1
"2101" 1 33 53 5 1 528 1 1 1
"2102" 1 33 54 3 1 623 0 0 1
"2103" 1 33 55 2 1 455 0 0 1
"2104" 1 33 56 4 1 498 0 0 1
"2105" 1 33 57 6 1 759 1 1 1
"2106" 1 33 58 7 1 641 1 1 1
"2107" 1 33 59 3 1 511 0 0 1
"2108" 1 33 60 2 1 468 0 0 1
"2109" 1 33 61 8 1 482 1 1 1
"2110" 1 33 62 1 1 429 0 0 1
"2111" 1 33 63 5 1 695 1 1 1
"2112" 1 33 64 4 1 570 0 0 1
"2113" 1 34 1 5 1 1007 1 1 1
"2114" 1 34 2 7 1 1228 1 1 1
"2115" 1 34 3 3 1 1202 0 0 1
"2116" 1 34 4 4 1 971 0 0 1
"2117" 1 34 5 2 1 1400 0 0 1
"2118" 1 34 6 1 1 1321 0 0 1
"2119" 1 34 7 6 1 572 1 1 1
"2120" 1 34 8 8 1 778 1 1 1
"2121" 1 34 9 2 1 1215 0 0 1
"2122" 1 34 10 8 0 979 1 0 1
"2123" 1 34 11 5 0 841 1 0 1
"2124" 1 34 12 6 0 503 1 0 1
"2125" 1 34 13 4 0 420 0 1 1
"2126" 1 34 14 1 1 627 0 0 1
"2127" 1 34 15 3 1 1544 0 0 1
"2128" 1 34 16 7 0 675 1 0 1
"2129" 1 34 17 2 0 739 0 1 1
"2130" 1 34 18 4 1 782 0 0 1
"2131" 1 34 19 7 0 1370 1 0 1
"2132" 1 34 20 3 0 1102 0 1 1
"2133" 1 34 21 6 0 1766 1 0 1
"2134" 1 34 22 1 0 1684 0 1 1
"2135" 1 34 23 5 1 775 1 1 1
"2136" 1 34 24 8 1 595 1 1 1
"2137" 1 34 25 1 1 647 0 0 1
"2138" 1 34 26 6 0 1349 1 0 1
"2139" 1 34 27 3 1 640 0 0 1
"2140" 1 34 28 4 1 1213 0 0 1
"2141" 1 34 29 8 1 450 1 1 1
"2142" 1 34 30 7 1 354 1 1 1
"2143" 1 34 31 2 1 477 0 0 1
"2144" 1 34 32 5 1 835 1 1 1
"2145" 1 34 33 5 1 707 1 1 1
"2146" 1 34 34 1 1 362 0 0 1
"2147" 1 34 35 6 1 612 1 1 1
"2148" 1 34 36 8 1 460 1 1 1
"2149" 1 34 37 2 1 475 0 0 1
"2150" 1 34 38 7 1 523 1 1 1
"2151" 1 34 39 3 1 546 0 0 1
"2152" 1 34 40 4 1 545 0 0 1
"2153" 1 34 41 1 1 370 0 0 1
"2154" 1 34 42 4 1 514 0 0 1
"2155" 1 34 43 8 1 499 1 1 1
"2156" 1 34 44 6 1 515 1 1 1
"2157" 1 34 45 3 1 558 0 0 1
"2158" 1 34 46 2 1 329 0 0 1
"2159" 1 34 47 7 1 598 1 1 1
"2160" 1 34 48 5 1 567 1 1 1
"2161" 1 34 49 1 1 344 0 0 1
"2162" 1 34 50 6 1 569 1 1 1
"2163" 1 34 51 7 1 604 1 1 1
"2164" 1 34 52 8 1 557 1 1 1
"2165" 1 34 53 5 1 460 1 1 1
"2166" 1 34 54 3 1 548 0 0 1
"2167" 1 34 55 2 1 398 0 0 1
"2168" 1 34 56 4 1 326 0 0 1
"2169" 1 34 57 6 0 292 1 0 1
"2170" 1 34 58 7 1 456 1 1 1
"2171" 1 34 59 3 1 510 0 0 1
"2172" 1 34 60 2 1 425 0 0 1
"2173" 1 34 61 8 1 526 1 1 1
"2174" 1 34 62 1 1 400 0 0 1
"2175" 1 34 63 5 1 674 1 1 1
"2176" 1 34 64 4 1 462 0 0 1
"2177" 1 35 1 5 1 1452 1 1 1
"2178" 1 35 2 7 1 828 1 1 1
"2179" 1 35 3 3 1 1303 0 0 1
"2180" 1 35 4 4 1 1194 0 0 1
"2181" 1 35 5 2 1 559 0 0 1
"2182" 1 35 6 1 1 476 0 0 1
"2183" 1 35 7 6 1 553 1 1 1
"2184" 1 35 8 8 1 487 1 1 1
"2185" 1 35 9 2 1 473 0 0 1
"2186" 1 35 10 8 1 407 1 1 1
"2187" 1 35 11 5 1 746 1 1 1
"2188" 1 35 12 6 1 631 1 1 1
"2189" 1 35 13 4 1 923 0 0 1
"2190" 1 35 14 1 1 517 0 0 1
"2191" 1 35 15 3 1 576 0 0 1
"2192" 1 35 16 7 1 503 1 1 1
"2193" 1 35 17 2 1 441 0 0 1
"2194" 1 35 18 4 1 654 0 0 1
"2195" 1 35 19 7 1 492 1 1 1
"2196" 1 35 20 3 1 604 0 0 1
"2197" 1 35 21 6 1 604 1 1 1
"2198" 1 35 22 1 1 565 0 0 1
"2199" 1 35 23 5 1 543 1 1 1
"2200" 1 35 24 8 1 432 1 1 1
"2201" 1 35 25 1 1 520 0 0 1
"2202" 1 35 26 6 1 518 1 1 1
"2203" 1 35 27 3 1 730 0 0 1
"2204" 1 35 28 4 1 934 0 0 1
"2205" 1 35 29 8 1 476 1 1 1
"2206" 1 35 30 7 1 431 1 1 1
"2207" 1 35 31 2 1 459 0 0 1
"2208" 1 35 32 5 1 706 1 1 1
"2209" 1 35 33 5 1 466 1 1 1
"2210" 1 35 34 1 1 408 0 0 1
"2211" 1 35 35 6 1 411 1 1 1
"2212" 1 35 36 8 1 418 1 1 1
"2213" 1 35 37 2 1 582 0 0 1
"2214" 1 35 38 7 1 318 1 1 1
"2215" 1 35 39 3 1 512 0 0 1
"2216" 1 35 40 4 1 528 0 0 1
"2217" 1 35 41 1 1 398 0 0 1
"2218" 1 35 42 4 1 430 0 0 1
"2219" 1 35 43 8 1 418 1 1 1
"2220" 1 35 44 6 1 426 1 1 1
"2221" 1 35 45 3 1 496 0 0 1
"2222" 1 35 46 2 1 473 0 0 1
"2223" 1 35 47 7 1 342 1 1 1
"2224" 1 35 48 5 1 622 1 1 1
"2225" 1 35 49 1 1 403 0 0 1
"2226" 1 35 50 6 1 366 1 1 1
"2227" 1 35 51 7 1 431 1 1 1
"2228" 1 35 52 8 1 438 1 1 1
"2229" 1 35 53 5 1 670 1 1 1
"2230" 1 35 54 3 1 494 0 0 1
"2231" 1 35 55 2 1 500 0 0 1
"2232" 1 35 56 4 1 369 0 0 1
"2233" 1 35 57 6 1 487 1 1 1
"2234" 1 35 58 7 1 388 1 1 1
"2235" 1 35 59 3 1 642 0 0 1
"2236" 1 35 60 2 1 438 0 0 1
"2237" 1 35 61 8 1 380 1 1 1
"2238" 1 35 62 1 1 519 0 0 1
"2239" 1 35 63 5 1 401 1 1 1
"2240" 1 35 64 4 1 790 0 0 1
"2241" 1 36 1 5 1 1676 1 1 1
"2242" 1 36 2 7 1 941 1 1 1
"2243" 1 36 3 3 1 1274 0 0 1
"2244" 1 36 4 4 1 676 0 0 1
"2245" 1 36 5 2 1 673 0 0 1
"2246" 1 36 6 1 1 846 0 0 1
"2247" 1 36 7 6 1 1121 1 1 1
"2248" 1 36 8 8 1 688 1 1 1
"2249" 1 36 9 2 1 556 0 0 1
"2250" 1 36 10 8 1 569 1 1 1
"2251" 1 36 11 5 1 1215 1 1 1
"2252" 1 36 12 6 1 814 1 1 1
"2253" 1 36 13 4 1 623 0 0 1
"2254" 1 36 14 1 1 696 0 0 1
"2255" 1 36 15 3 1 599 0 0 1
"2256" 1 36 16 7 1 597 1 1 1
"2257" 1 36 17 2 1 502 0 0 1
"2258" 1 36 18 4 1 1019 0 0 1
"2259" 1 36 19 7 1 746 1 1 1
"2260" 1 36 20 3 1 557 0 0 1
"2261" 1 36 21 6 1 654 1 1 1
"2262" 1 36 22 1 1 644 0 0 1
"2263" 1 36 23 5 1 1012 1 1 1
"2264" 1 36 24 8 1 546 1 1 1
"2265" 1 36 25 1 1 482 0 0 1
"2266" 1 36 26 6 1 1039 1 1 1
"2267" 1 36 27 3 1 520 0 0 1
"2268" 1 36 28 4 1 513 0 0 1
"2269" 1 36 29 8 1 520 1 1 1
"2270" 1 36 30 7 1 557 1 1 1
"2271" 1 36 31 2 1 493 0 0 1
"2272" 1 36 32 5 1 692 1 1 1
"2273" 1 36 33 5 1 897 1 1 1
"2274" 1 36 34 1 1 650 0 0 1
"2275" 1 36 35 6 1 666 1 1 1
"2276" 1 36 36 8 1 582 1 1 1
"2277" 1 36 37 2 1 619 0 0 1
"2278" 1 36 38 7 1 525 1 1 1
"2279" 1 36 39 3 1 669 0 0 1
"2280" 1 36 40 4 1 1889 0 0 1
"2281" 1 36 41 1 1 482 0 0 1
"2282" 1 36 42 4 1 706 0 0 1
"2283" 1 36 43 8 1 672 1 1 1
"2284" 1 36 44 6 1 866 1 1 1
"2285" 1 36 45 3 1 648 0 0 1
"2286" 1 36 46 2 1 432 0 0 1
"2287" 1 36 47 7 1 516 1 1 1
"2288" 1 36 48 5 1 920 1 1 1
"2289" 1 36 49 1 1 544 0 0 1
"2290" 1 36 50 6 1 999 1 1 1
"2291" 1 36 51 7 1 569 1 1 1
"2292" 1 36 52 8 1 552 1 1 1
"2293" 1 36 53 5 1 641 1 1 1
"2294" 1 36 54 3 1 722 0 0 1
"2295" 1 36 55 2 1 645 0 0 1
"2296" 1 36 56 4 1 552 0 0 1
"2297" 1 36 57 6 1 1402 1 1 1
"2298" 1 36 58 7 1 573 1 1 1
"2299" 1 36 59 3 1 490 0 0 1
"2300" 1 36 60 2 1 401 0 0 1
"2301" 1 36 61 8 1 594 1 1 1
"2302" 1 36 62 1 1 466 0 0 1
"2303" 1 36 63 5 1 774 1 1 1
"2304" 1 36 64 4 1 695 0 0 1
"2305" 1 37 1 5 1 2241 1 1 1
"2306" 1 37 2 7 1 740 1 1 1
"2307" 1 37 3 3 1 914 0 0 1
"2308" 1 37 4 4 1 731 0 0 1
"2309" 1 37 5 2 1 426 0 0 1
"2310" 1 37 6 1 1 549 0 0 1
"2311" 1 37 7 6 1 584 1 1 1
"2312" 1 37 8 8 1 377 1 1 1
"2313" 1 37 9 2 1 466 0 0 1
"2314" 1 37 10 8 1 356 1 1 1
"2315" 1 37 11 5 1 478 1 1 1
"2316" 1 37 12 6 1 482 1 1 1
"2317" 1 37 13 4 1 581 0 0 1
"2318" 1 37 14 1 1 456 0 0 1
"2319" 1 37 15 3 1 654 0 0 1
"2320" 1 37 16 7 1 413 1 1 1
"2321" 1 37 17 2 1 426 0 0 1
"2322" 1 37 18 4 1 464 0 0 1
"2323" 1 37 19 7 1 457 1 1 1
"2324" 1 37 20 3 1 513 0 0 1
"2325" 1 37 21 6 1 850 1 1 1
"2326" 1 37 22 1 1 551 0 0 1
"2327" 1 37 23 5 1 451 1 1 1
"2328" 1 37 24 8 1 439 1 1 1
"2329" 1 37 25 1 1 491 0 0 1
"2330" 1 37 26 6 1 615 1 1 1
"2331" 1 37 27 3 1 456 0 0 1
"2332" 1 37 28 4 1 624 0 0 1
"2333" 1 37 29 8 1 472 1 1 1
"2334" 1 37 30 7 1 511 1 1 1
"2335" 1 37 31 2 1 451 0 0 1
"2336" 1 37 32 5 1 516 1 1 1
"2337" 1 37 33 5 1 408 1 1 1
"2338" 1 37 34 1 1 466 0 0 1
"2339" 1 37 35 6 1 462 1 1 1
"2340" 1 37 36 8 1 448 1 1 1
"2341" 1 37 37 2 1 434 0 0 1
"2342" 1 37 38 7 1 399 1 1 1
"2343" 1 37 39 3 1 392 0 0 1
"2344" 1 37 40 4 1 710 0 0 1
"2345" 1 37 41 1 1 486 0 0 1
"2346" 1 37 42 4 1 1261 0 0 1
"2347" 1 37 43 8 1 567 1 1 1
"2348" 1 37 44 6 1 678 1 1 1
"2349" 1 37 45 3 1 502 0 0 1
"2350" 1 37 46 2 1 489 0 0 1
"2351" 1 37 47 7 1 514 1 1 1
"2352" 1 37 48 5 1 577 1 1 1
"2353" 1 37 49 1 1 433 0 0 1
"2354" 1 37 50 6 1 594 1 1 1
"2355" 1 37 51 7 1 544 1 1 1
"2356" 1 37 52 8 1 436 1 1 1
"2357" 1 37 53 5 1 722 1 1 1
"2358" 1 37 54 3 1 645 0 0 1
"2359" 1 37 55 2 1 485 0 0 1
"2360" 1 37 56 4 1 475 0 0 1
"2361" 1 37 57 6 1 609 1 1 1
"2362" 1 37 58 7 1 444 1 1 1
"2363" 1 37 59 3 1 519 0 0 1
"2364" 1 37 60 2 1 555 0 0 1
"2365" 1 37 61 8 1 557 1 1 1
"2366" 1 37 62 1 1 338 0 0 1
"2367" 1 37 63 5 1 486 1 1 1
"2368" 1 37 64 4 1 510 0 0 1
"2369" 1 38 1 5 0 2499 1 0 1
"2370" 1 38 2 7 1 1320 1 1 1
"2371" 1 38 3 3 1 696 0 0 1
"2372" 1 38 4 4 1 703 0 0 1
"2373" 1 38 5 2 1 433 0 0 1
"2374" 1 38 6 1 1 364 0 0 1
"2375" 1 38 7 6 1 627 1 1 1
"2376" 1 38 8 8 1 455 1 1 1
"2377" 1 38 9 2 1 471 0 0 1
"2378" 1 38 10 8 1 529 1 1 1
"2379" 1 38 11 5 0 1599 1 0 1
"2380" 1 38 12 6 1 336 1 1 1
"2381" 1 38 13 4 1 1529 0 0 1
"2382" 1 38 14 1 1 424 0 0 1
"2383" 1 38 15 3 1 784 0 0 1
"2384" 1 38 16 7 1 374 1 1 1
"2385" 1 38 17 2 1 289 0 0 1
"2386" 1 38 18 4 1 737 0 0 1
"2387" 1 38 19 7 1 558 1 1 1
"2388" 1 38 20 3 1 548 0 0 1
"2389" 1 38 21 6 1 998 1 1 1
"2390" 1 38 22 1 1 475 0 0 1
"2391" 1 38 23 5 1 534 1 1 1
"2392" 1 38 24 8 1 504 1 1 1
"2393" 1 38 25 1 1 474 0 0 1
"2394" 1 38 26 6 1 572 1 1 1
"2395" 1 38 27 3 1 880 0 0 1
"2396" 1 38 28 4 1 895 0 0 1
"2397" 1 38 29 8 1 516 1 1 1
"2398" 1 38 30 7 1 391 1 1 1
"2399" 1 38 31 2 1 577 0 0 1
"2400" 1 38 32 5 1 467 1 1 1
"2401" 1 38 33 5 1 663 1 1 1
"2402" 1 38 34 1 1 455 0 0 1
"2403" 1 38 35 6 1 418 1 1 1
"2404" 1 38 36 8 1 437 1 1 1
"2405" 1 38 37 2 1 404 0 0 1
"2406" 1 38 38 7 1 363 1 1 1
"2407" 1 38 39 3 1 724 0 0 1
"2408" 1 38 40 4 1 677 0 0 1
"2409" 1 38 41 1 1 953 0 0 1
"2410" 1 38 42 4 1 322 0 0 1
"2411" 1 38 43 8 1 397 1 1 1
"2412" 1 38 44 6 1 819 1 1 1
"2413" 1 38 45 3 1 448 0 0 1
"2414" 1 38 46 2 1 465 0 0 1
"2415" 1 38 47 7 1 418 1 1 1
"2416" 1 38 48 5 1 755 1 1 1
"2417" 1 38 49 1 1 408 0 0 1
"2418" 1 38 50 6 1 492 1 1 1
"2419" 1 38 51 7 1 490 1 1 1
"2420" 1 38 52 8 1 516 1 1 1
"2421" 1 38 53 5 1 699 1 1 1
"2422" 1 38 54 3 1 458 0 0 1
"2423" 1 38 55 2 1 399 0 0 1
"2424" 1 38 56 4 1 598 0 0 1
"2425" 1 38 57 6 1 854 1 1 1
"2426" 1 38 58 7 1 548 1 1 1
"2427" 1 38 59 3 1 737 0 0 1
"2428" 1 38 60 2 1 434 0 0 1
"2429" 1 38 61 8 1 488 1 1 1
"2430" 1 38 62 1 1 423 0 0 1
"2431" 1 38 63 5 1 1051 1 1 1
"2432" 1 38 64 4 1 420 0 0 1
"2433" 1 39 1 5 1 2202 1 1 1
"2434" 1 39 2 7 1 1314 1 1 1
"2435" 1 39 3 3 1 1083 0 0 1
"2436" 1 39 4 4 1 1838 0 0 1
"2437" 1 39 5 2 1 582 0 0 1
"2438" 1 39 6 1 1 501 0 0 1
"2439" 1 39 7 6 1 690 1 1 1
"2440" 1 39 8 8 1 622 1 1 1
"2441" 1 39 9 2 1 536 0 0 1
"2442" 1 39 10 8 1 502 1 1 1
"2443" 1 39 11 5 1 881 1 1 1
"2444" 1 39 12 6 1 760 1 1 1
"2445" 1 39 13 4 1 508 0 0 1
"2446" 1 39 14 1 1 663 0 0 1
"2447" 1 39 15 3 1 620 0 0 1
"2448" 1 39 16 7 1 1026 1 1 1
"2449" 1 39 17 2 1 616 0 0 1
"2450" 1 39 18 4 1 984 0 0 1
"2451" 1 39 19 7 1 577 1 1 1
"2452" 1 39 20 3 1 661 0 0 1
"2453" 1 39 21 6 1 595 1 1 1
"2454" 1 39 22 1 1 415 0 0 1
"2455" 1 39 23 5 1 582 1 1 1
"2456" 1 39 24 8 1 645 1 1 1
"2457" 1 39 25 1 1 641 0 0 1
"2458" 1 39 26 6 1 435 1 1 1
"2459" 1 39 27 3 1 490 0 0 1
"2460" 1 39 28 4 1 526 0 0 1
"2461" 1 39 29 8 1 527 1 1 1
"2462" 1 39 30 7 1 605 1 1 1
"2463" 1 39 31 2 1 449 0 0 1
"2464" 1 39 32 5 1 854 1 1 1
"2465" 1 39 33 5 1 1050 1 1 1
"2466" 1 39 34 1 1 641 0 0 1
"2467" 1 39 35 6 1 846 1 1 1
"2468" 1 39 36 8 1 497 1 1 1
"2469" 1 39 37 2 1 652 0 0 1
"2470" 1 39 38 7 1 466 1 1 1
"2471" 1 39 39 3 1 1157 0 0 1
"2472" 1 39 40 4 1 1451 0 0 1
"2473" 1 39 41 1 1 565 0 0 1
"2474" 1 39 42 4 1 481 0 0 1
"2475" 1 39 43 8 1 671 1 1 1
"2476" 1 39 44 6 1 705 1 1 1
"2477" 1 39 45 3 1 1056 0 0 1
"2478" 1 39 46 2 1 679 0 0 1
"2479" 1 39 47 7 1 610 1 1 1
"2480" 1 39 48 5 1 580 1 1 1
"2481" 1 39 49 1 1 633 0 0 1
"2482" 1 39 50 6 1 927 1 1 1
"2483" 1 39 51 7 1 555 1 1 1
"2484" 1 39 52 8 1 688 1 1 1
"2485" 1 39 53 5 1 715 1 1 1
"2486" 1 39 54 3 1 1442 0 0 1
"2487" 1 39 55 2 1 683 0 0 1
"2488" 1 39 56 4 1 885 0 0 1
"2489" 1 39 57 6 1 825 1 1 1
"2490" 1 39 58 7 1 720 1 1 1
"2491" 1 39 59 3 1 1051 0 0 1
"2492" 1 39 60 2 1 651 0 0 1
"2493" 1 39 61 8 1 791 1 1 1
"2494" 1 39 62 1 1 708 0 0 1
"2495" 1 39 63 5 1 824 1 1 1
"2496" 1 39 64 4 1 687 0 0 1
"2497" 1 40 1 5 1 1693 1 1 1
"2498" 1 40 2 7 1 1942 1 1 1
"2499" 1 40 3 3 1 1058 0 0 1
"2500" 1 40 4 4 0 2183 0 1 1
"2501" 1 40 5 2 1 2314 0 0 1
"2502" 1 40 6 1 0 1324 0 1 1
"2503" 1 40 7 6 1 1925 1 1 1
"2504" 1 40 8 8 0 1583 1 0 1
"2505" 1 40 9 2 1 769 0 0 1
"2506" 1 40 10 8 1 864 1 1 1
"2507" 1 40 11 5 1 809 1 1 1
"2508" 1 40 12 6 1 790 1 1 1
"2509" 1 40 13 4 1 821 0 0 1
"2510" 1 40 14 1 1 688 0 0 1
"2511" 1 40 15 3 1 756 0 0 1
"2512" 1 40 16 7 1 538 1 1 1
"2513" 1 40 17 2 1 440 0 0 1
"2514" 1 40 18 4 1 653 0 0 1
"2515" 1 40 19 7 1 426 1 1 1
"2516" 1 40 20 3 1 459 0 0 1
"2517" 1 40 21 6 1 833 1 1 1
"2518" 1 40 22 1 1 475 0 0 1
"2519" 1 40 23 5 1 593 1 1 1
"2520" 1 40 24 8 1 605 1 1 1
"2521" 1 40 25 1 1 453 0 0 1
"2522" 1 40 26 6 1 598 1 1 1
"2523" 1 40 27 3 1 401 0 0 1
"2524" 1 40 28 4 1 596 0 0 1
"2525" 1 40 29 8 1 454 1 1 1
"2526" 1 40 30 7 1 484 1 1 1
"2527" 1 40 31 2 1 478 0 0 1
"2528" 1 40 32 5 1 732 1 1 1
"2529" 1 40 33 5 1 583 1 1 1
"2530" 1 40 34 1 1 504 0 0 1
"2531" 1 40 35 6 1 444 1 1 1
"2532" 1 40 36 8 1 543 1 1 1
"2533" 1 40 37 2 1 384 0 0 1
"2534" 1 40 38 7 1 435 1 1 1
"2535" 1 40 39 3 1 731 0 0 1
"2536" 1 40 40 4 1 683 0 0 1
"2537" 1 40 41 1 1 475 0 0 1
"2538" 1 40 42 4 1 476 0 0 1
"2539" 1 40 43 8 1 427 1 1 1
"2540" 1 40 44 6 1 642 1 1 1
"2541" 1 40 45 3 1 649 0 0 1
"2542" 1 40 46 2 1 436 0 0 1
"2543" 1 40 47 7 1 529 1 1 1
"2544" 1 40 48 5 1 531 1 1 1
"2545" 1 40 49 1 1 523 0 0 1
"2546" 1 40 50 6 1 426 1 1 1
"2547" 1 40 51 7 1 497 1 1 1
"2548" 1 40 52 8 1 398 1 1 1
"2549" 1 40 53 5 1 555 1 1 1
"2550" 1 40 54 3 1 476 0 0 1
"2551" 1 40 55 2 1 484 0 0 1
"2552" 1 40 56 4 1 644 0 0 1
"2553" 1 40 57 6 1 624 1 1 1
"2554" 1 40 58 7 1 481 1 1 1
"2555" 1 40 59 3 1 585 0 0 1
"2556" 1 40 60 2 1 401 0 0 1
"2557" 1 40 61 8 1 497 1 1 1
"2558" 1 40 62 1 1 339 0 0 1
"2559" 1 40 63 5 1 772 1 1 1
"2560" 1 40 64 4 1 421 0 0 1
"2561" 2 1 1 5 1 2468 0 0 1
"2562" 2 1 2 7 1 2794 0 0 1
"2563" 2 1 3 3 0 916 0 1 1
"2564" 2 1 4 4 1 2231 1 1 1
"2565" 2 1 5 2 1 802 1 1 1
"2566" 2 1 6 1 1 416 0 0 1
"2567" 2 1 7 6 1 373 1 1 1
"2568" 2 1 8 8 1 605 1 1 1
"2569" 2 1 9 2 1 435 1 1 1
"2570" 2 1 10 8 1 572 1 1 1
"2571" 2 1 11 5 1 437 0 0 1
"2572" 2 1 12 6 1 519 1 1 1
"2573" 2 1 13 4 1 390 1 1 1
"2574" 2 1 14 1 1 589 0 0 1
"2575" 2 1 15 3 1 711 0 0 1
"2576" 2 1 16 7 1 982 0 0 1
"2577" 2 1 17 2 1 873 1 1 1
"2578" 2 1 18 4 1 600 1 1 1
"2579" 2 1 19 7 1 580 0 0 1
"2580" 2 1 20 3 1 579 0 0 1
"2581" 2 1 21 6 1 587 1 1 1
"2582" 2 1 22 1 1 981 0 0 1
"2583" 2 1 23 5 1 991 0 0 1
"2584" 2 1 24 8 1 704 1 1 1
"2585" 2 1 25 1 1 848 0 0 1
"2586" 2 1 26 6 1 652 1 1 1
"2587" 2 1 27 3 1 524 0 0 1
"2588" 2 1 28 4 1 554 1 1 1
"2589" 2 1 29 8 1 884 1 1 1
"2590" 2 1 30 7 0 654 0 1 1
"2591" 2 1 31 2 1 783 1 1 1
"2592" 2 1 32 5 1 808 0 0 1
"2593" 2 1 33 5 1 693 0 0 1
"2594" 2 1 34 1 1 946 0 0 1
"2595" 2 1 35 6 1 405 1 1 1
"2596" 2 1 36 8 1 739 1 1 1
"2597" 2 1 37 2 0 933 1 0 1
"2598" 2 1 38 7 0 1212 0 1 1
"2599" 2 1 39 3 1 738 0 0 1
"2600" 2 1 40 4 1 464 1 1 1
"2601" 2 1 41 1 1 772 0 0 1
"2602" 2 1 42 4 1 500 1 1 1
"2603" 2 1 43 8 1 1166 1 1 1
"2604" 2 1 44 6 1 371 1 1 1
"2605" 2 1 45 3 1 1232 0 0 1
"2606" 2 1 46 2 1 613 1 1 1
"2607" 2 1 47 7 0 1125 0 1 1
"2608" 2 1 48 5 1 508 0 0 1
"2609" 2 1 49 1 1 563 0 0 1
"2610" 2 1 50 6 1 548 1 1 1
"2611" 2 1 51 7 1 735 0 0 1
"2612" 2 1 52 8 1 398 1 1 1
"2613" 2 1 53 5 1 449 0 0 1
"2614" 2 1 54 3 1 572 0 0 1
"2615" 2 1 55 2 1 652 1 1 1
"2616" 2 1 56 4 1 519 1 1 1
"2617" 2 1 57 6 1 701 1 1 1
"2618" 2 1 58 7 1 392 0 0 1
"2619" 2 1 59 3 1 538 0 0 1
"2620" 2 1 60 2 1 487 1 1 1
"2621" 2 1 61 8 1 443 1 1 1
"2622" 2 1 62 1 1 922 0 0 1
"2623" 2 1 63 5 1 605 0 0 1
"2624" 2 1 64 4 1 467 1 1 1
"2625" 2 2 1 5 0 1090 0 1 1
"2626" 2 2 2 7 1 1711 0 0 1
"2627" 2 2 3 3 1 1026 0 0 1
"2628" 2 2 4 4 0 862 1 0 1
"2629" 2 2 5 2 1 858 1 1 1
"2630" 2 2 6 1 0 1556 0 1 1
"2631" 2 2 7 6 1 1303 1 1 1
"2632" 2 2 8 8 1 1815 1 1 1
"2633" 2 2 9 2 0 975 1 0 1
"2634" 2 2 10 8 1 2554 1 1 1
"2635" 2 2 11 5 0 3033 0 1 1
"2636" 2 2 12 6 1 968 1 1 1
"2637" 2 2 13 4 1 3382 1 1 1
"2638" 2 2 14 1 1 896 0 0 1
"2639" 2 2 15 3 1 858 0 0 1
"2640" 2 2 16 7 1 902 0 0 1
"2641" 2 2 17 2 1 907 1 1 1
"2642" 2 2 18 4 1 1231 1 1 1
"2643" 2 2 19 7 1 896 0 0 1
"2644" 2 2 20 3 1 897 0 0 1
"2645" 2 2 21 6 1 797 1 1 1
"2646" 2 2 22 1 1 896 0 0 1
"2647" 2 2 23 5 1 1199 0 0 1
"2648" 2 2 24 8 1 902 1 1 1
"2649" 2 2 25 1 1 808 0 0 1
"2650" 2 2 26 6 1 992 1 1 1
"2651" 2 2 27 3 1 657 0 0 1
"2652" 2 2 28 4 1 858 1 1 1
"2653" 2 2 29 8 1 1822 1 1 1
"2654" 2 2 30 7 1 1216 0 0 1
"2655" 2 2 31 2 1 1135 1 1 1
"2656" 2 2 32 5 1 1058 0 0 1
"2657" 2 2 33 5 1 1331 0 0 1
"2658" 2 2 34 1 1 1172 0 0 1
"2659" 2 2 35 6 1 862 1 1 1
"2660" 2 2 36 8 1 1756 1 1 1
"2661" 2 2 37 2 1 809 1 1 1
"2662" 2 2 38 7 1 835 0 0 1
"2663" 2 2 39 3 1 822 0 0 1
"2664" 2 2 40 4 1 972 1 1 1
"2665" 2 2 41 1 1 2384 0 0 1
"2666" 2 2 42 4 1 798 1 1 1
"2667" 2 2 43 8 1 900 1 1 1
"2668" 2 2 44 6 1 939 1 1 1
"2669" 2 2 45 3 1 868 0 0 1
"2670" 2 2 46 2 1 743 1 1 1
"2671" 2 2 47 7 1 901 0 0 1
"2672" 2 2 48 5 1 892 0 0 1
"2673" 2 2 49 1 1 1823 0 0 1
"2674" 2 2 50 6 1 828 1 1 1
"2675" 2 2 51 7 1 1519 0 0 1
"2676" 2 2 52 8 1 942 1 1 1
"2677" 2 2 53 5 1 775 0 0 1
"2678" 2 2 54 3 1 611 0 0 1
"2679" 2 2 55 2 1 1163 1 1 1
"2680" 2 2 56 4 1 900 1 1 1
"2681" 2 2 57 6 1 843 1 1 1
"2682" 2 2 58 7 1 1059 0 0 1
"2683" 2 2 59 3 1 694 0 0 1
"2684" 2 2 60 2 1 900 1 1 1
"2685" 2 2 61 8 1 778 1 1 1
"2686" 2 2 62 1 1 1182 0 0 1
"2687" 2 2 63 5 1 1272 0 0 1
"2688" 2 2 64 4 1 1070 1 1 1
"2689" 2 3 1 5 0 774 0 1 1
"2690" 2 3 2 7 0 603 0 1 1
"2691" 2 3 3 3 0 602 0 1 1
"2692" 2 3 4 4 0 512 1 0 1
"2693" 2 3 5 2 0 1224 1 0 1
"2694" 2 3 6 1 0 570 0 1 1
"2695" 2 3 7 6 1 624 1 1 1
"2696" 2 3 8 8 1 1029 1 1 1
"2697" 2 3 9 2 1 548 1 1 1
"2698" 2 3 10 8 1 492 1 1 1
"2699" 2 3 11 5 1 417 0 0 1
"2700" 2 3 12 6 1 559 1 1 1
"2701" 2 3 13 4 1 578 1 1 1
"2702" 2 3 14 1 1 415 0 0 1
"2703" 2 3 15 3 1 345 0 0 1
"2704" 2 3 16 7 1 373 0 0 1
"2705" 2 3 17 2 1 444 1 1 1
"2706" 2 3 18 4 1 690 1 1 1
"2707" 2 3 19 7 1 546 0 0 1
"2708" 2 3 20 3 1 495 0 0 1
"2709" 2 3 21 6 1 454 1 1 1
"2710" 2 3 22 1 1 440 0 0 1
"2711" 2 3 23 5 1 560 0 0 1
"2712" 2 3 24 8 0 390 1 0 1
"2713" 2 3 25 1 1 578 0 0 1
"2714" 2 3 26 6 1 439 1 1 1
"2715" 2 3 27 3 1 590 0 0 1
"2716" 2 3 28 4 1 948 1 1 1
"2717" 2 3 29 8 1 474 1 1 1
"2718" 2 3 30 7 0 578 0 1 1
"2719" 2 3 31 2 1 836 1 1 1
"2720" 2 3 32 5 1 574 0 0 1
"2721" 2 3 33 5 1 545 0 0 1
"2722" 2 3 34 1 1 980 0 0 1
"2723" 2 3 35 6 1 487 1 1 1
"2724" 2 3 36 8 1 377 1 1 1
"2725" 2 3 37 2 1 451 1 1 1
"2726" 2 3 38 7 1 500 0 0 1
"2727" 2 3 39 3 1 312 0 0 1
"2728" 2 3 40 4 1 389 1 1 1
"2729" 2 3 41 1 1 585 0 0 1
"2730" 2 3 42 4 1 980 1 1 1
"2731" 2 3 43 8 1 459 1 1 1
"2732" 2 3 44 6 1 992 1 1 1
"2733" 2 3 45 3 1 376 0 0 1
"2734" 2 3 46 2 1 533 1 1 1
"2735" 2 3 47 7 0 610 0 1 1
"2736" 2 3 48 5 1 476 0 0 1
"2737" 2 3 49 1 1 401 0 0 1
"2738" 2 3 50 6 1 463 1 1 1
"2739" 2 3 51 7 1 574 0 0 1
"2740" 2 3 52 8 1 760 1 1 1
"2741" 2 3 53 5 1 416 0 0 1
"2742" 2 3 54 3 1 502 0 0 1
"2743" 2 3 55 2 1 433 1 1 1
"2744" 2 3 56 4 1 726 1 1 1
"2745" 2 3 57 6 1 564 1 1 1
"2746" 2 3 58 7 1 543 0 0 1
"2747" 2 3 59 3 1 430 0 0 1
"2748" 2 3 60 2 1 821 1 1 1
"2749" 2 3 61 8 1 450 1 1 1
"2750" 2 3 62 1 1 812 0 0 1
"2751" 2 3 63 5 1 434 0 0 1
"2752" 2 3 64 4 1 615 1 1 1
"2753" 2 4 1 5 1 1339 0 0 1
"2754" 2 4 2 7 1 10550 0 0 1
"2755" 2 4 3 3 0 3242 0 1 1
"2756" 2 4 4 4 1 1248 1 1 1
"2757" 2 4 5 2 1 886 1 1 1
"2758" 2 4 6 1 1 627 0 0 1
"2759" 2 4 7 6 1 943 1 1 1
"2760" 2 4 8 8 1 1241 1 1 1
"2761" 2 4 9 2 0 1795 1 0 1
"2762" 2 4 10 8 1 691 1 1 1
"2763" 2 4 11 5 1 1719 0 0 1
"2764" 2 4 12 6 1 744 1 1 1
"2765" 2 4 13 4 1 658 1 1 1
"2766" 2 4 14 1 1 1148 0 0 1
"2767" 2 4 15 3 1 1266 0 0 1
"2768" 2 4 16 7 1 1817 0 0 1
"2769" 2 4 17 2 1 597 1 1 1
"2770" 2 4 18 4 1 703 1 1 1
"2771" 2 4 19 7 1 1018 0 0 1
"2772" 2 4 20 3 1 2417 0 0 1
"2773" 2 4 21 6 1 829 1 1 1
"2774" 2 4 22 1 1 592 0 0 1
"2775" 2 4 23 5 1 686 0 0 1
"2776" 2 4 24 8 1 713 1 1 1
"2777" 2 4 25 1 1 680 0 0 1
"2778" 2 4 26 6 1 1229 1 1 1
"2779" 2 4 27 3 1 475 0 0 1
"2780" 2 4 28 4 1 535 1 1 1
"2781" 2 4 29 8 1 716 1 1 1
"2782" 2 4 30 7 1 472 0 0 1
"2783" 2 4 31 2 1 1115 1 1 1
"2784" 2 4 32 5 1 664 0 0 1
"2785" 2 4 33 5 1 589 0 0 1
"2786" 2 4 34 1 1 814 0 0 1
"2787" 2 4 35 6 1 653 1 1 1
"2788" 2 4 36 8 1 613 1 1 1
"2789" 2 4 37 2 1 819 1 1 1
"2790" 2 4 38 7 1 645 0 0 1
"2791" 2 4 39 3 1 627 0 0 1
"2792" 2 4 40 4 1 642 1 1 1
"2793" 2 4 41 1 1 1462 0 0 1
"2794" 2 4 42 4 1 660 1 1 1
"2795" 2 4 43 8 1 1125 1 1 1
"2796" 2 4 44 6 1 709 1 1 1
"2797" 2 4 45 3 1 618 0 0 1
"2798" 2 4 46 2 1 1120 1 1 1
"2799" 2 4 47 7 1 846 0 0 1
"2800" 2 4 48 5 1 1102 0 0 1
"2801" 2 4 49 1 1 1636 0 0 1
"2802" 2 4 50 6 1 590 1 1 1
"2803" 2 4 51 7 1 2524 0 0 1
"2804" 2 4 52 8 1 874 1 1 1
"2805" 2 4 53 5 1 1314 0 0 1
"2806" 2 4 54 3 1 1378 0 0 1
"2807" 2 4 55 2 1 1781 1 1 1
"2808" 2 4 56 4 1 586 1 1 1
"2809" 2 4 57 6 1 515 1 1 1
"2810" 2 4 58 7 1 1152 0 0 1
"2811" 2 4 59 3 1 727 0 0 1
"2812" 2 4 60 2 1 820 1 1 1
"2813" 2 4 61 8 1 781 1 1 1
"2814" 2 4 62 1 1 1059 0 0 1
"2815" 2 4 63 5 1 687 0 0 1
"2816" 2 4 64 4 1 634 1 1 1
"2817" 2 5 1 5 0 4887 0 1 1
"2818" 2 5 2 7 0 1536 0 1 1
"2819" 2 5 3 3 1 1643 0 0 1
"2820" 2 5 4 4 1 901 1 1 1
"2821" 2 5 5 2 0 885 1 0 1
"2822" 2 5 6 1 0 1174 0 1 1
"2823" 2 5 7 6 0 9223 1 0 1
"2824" 2 5 8 8 0 2600 1 0 1
"2825" 2 5 9 2 1 2999 1 1 1
"2826" 2 5 10 8 1 2653 1 1 1
"2827" 2 5 11 5 1 830 0 0 1
"2828" 2 5 12 6 1 645 1 1 1
"2829" 2 5 13 4 1 685 1 1 1
"2830" 2 5 14 1 1 452 0 0 1
"2831" 2 5 15 3 1 620 0 0 1
"2832" 2 5 16 7 1 428 0 0 1
"2833" 2 5 17 2 1 581 1 1 1
"2834" 2 5 18 4 1 551 1 1 1
"2835" 2 5 19 7 1 529 0 0 1
"2836" 2 5 20 3 1 371 0 0 1
"2837" 2 5 21 6 1 451 1 1 1
"2838" 2 5 22 1 1 510 0 0 1
"2839" 2 5 23 5 0 522 0 1 1
"2840" 2 5 24 8 0 734 1 0 1
"2841" 2 5 25 1 1 808 0 0 1
"2842" 2 5 26 6 1 690 1 1 1
"2843" 2 5 27 3 1 662 0 0 1
"2844" 2 5 28 4 1 452 1 1 1
"2845" 2 5 29 8 0 717 1 0 1
"2846" 2 5 30 7 1 1302 0 0 1
"2847" 2 5 31 2 0 561 1 0 1
"2848" 2 5 32 5 1 774 0 0 1
"2849" 2 5 33 5 1 617 0 0 1
"2850" 2 5 34 1 1 728 0 0 1
"2851" 2 5 35 6 1 623 1 1 1
"2852" 2 5 36 8 1 726 1 1 1
"2853" 2 5 37 2 1 506 1 1 1
"2854" 2 5 38 7 1 549 0 0 1
"2855" 2 5 39 3 0 1075 0 1 1
"2856" 2 5 40 4 0 1213 1 0 1
"2857" 2 5 41 1 1 652 0 0 1
"2858" 2 5 42 4 1 676 1 1 1
"2859" 2 5 43 8 1 489 1 1 1
"2860" 2 5 44 6 1 492 1 1 1
"2861" 2 5 45 3 1 421 0 0 1
"2862" 2 5 46 2 1 528 1 1 1
"2863" 2 5 47 7 1 461 0 0 1
"2864" 2 5 48 5 1 474 0 0 1
"2865" 2 5 49 1 1 583 0 0 1
"2866" 2 5 50 6 1 560 1 1 1
"2867" 2 5 51 7 0 519 0 1 1
"2868" 2 5 52 8 1 712 1 1 1
"2869" 2 5 53 5 1 519 0 0 1
"2870" 2 5 54 3 1 338 0 0 1
"2871" 2 5 55 2 1 523 1 1 1
"2872" 2 5 56 4 1 1290 1 1 1
"2873" 2 5 57 6 1 408 1 1 1
"2874" 2 5 58 7 1 556 0 0 1
"2875" 2 5 59 3 1 417 0 0 1
"2876" 2 5 60 2 1 1360 1 1 1
"2877" 2 5 61 8 1 578 1 1 1
"2878" 2 5 62 1 1 269 0 0 1
"2879" 2 5 63 5 1 310 0 0 1
"2880" 2 5 64 4 1 460 1 1 1
"2881" 2 6 1 5 0 5208 0 1 1
"2882" 2 6 2 7 1 1618 0 0 1
"2883" 2 6 3 3 0 1533 0 1 1
"2884" 2 6 4 4 1 3467 1 1 1
"2885" 2 6 5 2 1 2387 1 1 1
"2886" 2 6 6 1 1 1528 0 0 1
"2887" 2 6 7 6 1 1136 1 1 1
"2888" 2 6 8 8 1 3109 1 1 1
"2889" 2 6 9 2 1 3304 1 1 1
"2890" 2 6 10 8 1 1995 1 1 1
"2891" 2 6 11 5 1 964 0 0 1
"2892" 2 6 12 6 1 1128 1 1 1
"2893" 2 6 13 4 1 1008 1 1 1
"2894" 2 6 14 1 1 1331 0 0 1
"2895" 2 6 15 3 1 1488 0 0 1
"2896" 2 6 16 7 1 3827 0 0 1
"2897" 2 6 17 2 1 1451 1 1 1
"2898" 2 6 18 4 1 1054 1 1 1
"2899" 2 6 19 7 1 1036 0 0 1
"2900" 2 6 20 3 1 1090 0 0 1
"2901" 2 6 21 6 1 1959 1 1 1
"2902" 2 6 22 1 1 1404 0 0 1
"2903" 2 6 23 5 1 2494 0 0 1
"2904" 2 6 24 8 1 1659 1 1 1
"2905" 2 6 25 1 1 2924 0 0 1
"2906" 2 6 26 6 1 879 1 1 1
"2907" 2 6 27 3 1 1354 0 0 1
"2908" 2 6 28 4 1 878 1 1 1
"2909" 2 6 29 8 1 1432 1 1 1
"2910" 2 6 30 7 0 3362 0 1 1
"2911" 2 6 31 2 1 1259 1 1 1
"2912" 2 6 32 5 1 691 0 0 1
"2913" 2 6 33 5 1 1088 0 0 1
"2914" 2 6 34 1 1 2001 0 0 1
"2915" 2 6 35 6 1 934 1 1 1
"2916" 2 6 36 8 1 1545 1 1 1
"2917" 2 6 37 2 1 801 1 1 1
"2918" 2 6 38 7 0 1020 0 1 1
"2919" 2 6 39 3 1 2153 0 0 1
"2920" 2 6 40 4 1 1744 1 1 1
"2921" 2 6 41 1 1 3226 0 0 1
"2922" 2 6 42 4 1 768 1 1 1
"2923" 2 6 43 8 1 916 1 1 1
"2924" 2 6 44 6 1 996 1 1 1
"2925" 2 6 45 3 1 745 0 0 1
"2926" 2 6 46 2 1 3187 1 1 1
"2927" 2 6 47 7 0 7351 0 1 1
"2928" 2 6 48 5 1 998 0 0 1
"2929" 2 6 49 1 1 1270 0 0 1
"2930" 2 6 50 6 1 741 1 1 1
"2931" 2 6 51 7 1 1971 0 0 1
"2932" 2 6 52 8 1 1111 1 1 1
"2933" 2 6 53 5 1 1108 0 0 1
"2934" 2 6 54 3 1 955 0 0 1
"2935" 2 6 55 2 1 975 1 1 1
"2936" 2 6 56 4 1 666 1 1 1
"2937" 2 6 57 6 1 883 1 1 1
"2938" 2 6 58 7 0 2817 0 1 1
"2939" 2 6 59 3 1 3697 0 0 1
"2940" 2 6 60 2 1 1450 1 1 1
"2941" 2 6 61 8 1 1226 1 1 1
"2942" 2 6 62 1 1 2197 0 0 1
"2943" 2 6 63 5 1 1548 0 0 1
"2944" 2 6 64 4 1 850 1 1 1
"2945" 2 7 1 5 1 4002 0 0 1
"2946" 2 7 2 7 0 1438 0 1 1
"2947" 2 7 3 3 0 3707 0 1 1
"2948" 2 7 4 4 1 2104 1 1 1
"2949" 2 7 5 2 0 2061 1 0 1
"2950" 2 7 6 1 1 1442 0 0 1
"2951" 2 7 7 6 1 2023 1 1 1
"2952" 2 7 8 8 0 3252 1 0 1
"2953" 2 7 9 2 0 856 1 0 1
"2954" 2 7 10 8 1 23310 1 1 1
"2955" 2 7 11 5 1 1801 0 0 1
"2956" 2 7 12 6 1 1643 1 1 1
"2957" 2 7 13 4 1 1037 1 1 1
"2958" 2 7 14 1 1 591 0 0 1
"2959" 2 7 15 3 1 1628 0 0 1
"2960" 2 7 16 7 2 0 0 1 1
"2961" 2 7 17 2 0 1880 1 0 1
"2962" 2 7 18 4 0 1456 1 0 1
"2963" 2 7 19 7 1 966 0 0 1
"2964" 2 7 20 3 0 1324 0 1 1
"2965" 2 7 21 6 0 1259 1 0 1
"2966" 2 7 22 1 1 722 0 0 1
"2967" 2 7 23 5 1 748 0 0 1
"2968" 2 7 24 8 1 542 1 1 1
"2969" 2 7 25 1 1 541 0 0 1
"2970" 2 7 26 6 1 440 1 1 1
"2971" 2 7 27 3 1 507 0 0 1
"2972" 2 7 28 4 1 574 1 1 1
"2973" 2 7 29 8 1 3098 1 1 1
"2974" 2 7 30 7 1 681 0 0 1
"2975" 2 7 31 2 1 640 1 1 1
"2976" 2 7 32 5 1 474 0 0 1
"2977" 2 7 33 5 1 526 0 0 1
"2978" 2 7 34 1 1 613 0 0 1
"2979" 2 7 35 6 1 444 1 1 1
"2980" 2 7 36 8 1 644 1 1 1
"2981" 2 7 37 2 1 756 1 1 1
"2982" 2 7 38 7 1 1643 0 0 1
"2983" 2 7 39 3 1 533 0 0 1
"2984" 2 7 40 4 1 478 1 1 1
"2985" 2 7 41 1 1 482 0 0 1
"2986" 2 7 42 4 1 441 1 1 1
"2987" 2 7 43 8 1 606 1 1 1
"2988" 2 7 44 6 1 518 1 1 1
"2989" 2 7 45 3 1 462 0 0 1
"2990" 2 7 46 2 1 668 1 1 1
"2991" 2 7 47 7 1 579 0 0 1
"2992" 2 7 48 5 1 1855 0 0 1
"2993" 2 7 49 1 1 620 0 0 1
"2994" 2 7 50 6 1 505 1 1 1
"2995" 2 7 51 7 1 818 0 0 1
"2996" 2 7 52 8 1 900 1 1 1
"2997" 2 7 53 5 1 717 0 0 1
"2998" 2 7 54 3 1 445 0 0 1
"2999" 2 7 55 2 1 605 1 1 1
"3000" 2 7 56 4 1 521 1 1 1
"3001" 2 7 57 6 1 491 1 1 1
"3002" 2 7 58 7 1 660 0 0 1
"3003" 2 7 59 3 1 482 0 0 1
"3004" 2 7 60 2 1 795 1 1 1
"3005" 2 7 61 8 1 573 1 1 1
"3006" 2 7 62 1 1 479 0 0 1
"3007" 2 7 63 5 1 554 0 0 1
"3008" 2 7 64 4 1 498 1 1 1
"3009" 2 8 1 5 0 2647 0 1 1
"3010" 2 8 2 7 1 1875 0 0 1
"3011" 2 8 3 3 1 989 0 0 1
"3012" 2 8 4 4 1 891 1 1 1
"3013" 2 8 5 2 1 520 1 1 1
"3014" 2 8 6 1 0 640 0 1 1
"3015" 2 8 7 6 1 2180 1 1 1
"3016" 2 8 8 8 0 2131 1 0 1
"3017" 2 8 9 2 1 3504 1 1 1
"3018" 2 8 10 8 1 2140 1 1 1
"3019" 2 8 11 5 1 2280 0 0 1
"3020" 2 8 12 6 0 1276 1 0 1
"3021" 2 8 13 4 1 549 1 1 1
"3022" 2 8 14 1 0 2551 0 1 1
"3023" 2 8 15 3 1 2048 0 0 1
"3024" 2 8 16 7 0 2543 0 1 1
"3025" 2 8 17 2 1 3032 1 1 1
"3026" 2 8 18 4 0 2391 1 0 1
"3027" 2 8 19 7 0 2627 0 1 1
"3028" 2 8 20 3 1 1442 0 0 1
"3029" 2 8 21 6 1 2480 1 1 1
"3030" 2 8 22 1 0 2902 0 1 1
"3031" 2 8 23 5 1 1479 0 0 1
"3032" 2 8 24 8 1 1133 1 1 1
"3033" 2 8 25 1 0 1368 0 1 1
"3034" 2 8 26 6 1 670 1 1 1
"3035" 2 8 27 3 1 1448 0 0 1
"3036" 2 8 28 4 1 659 1 1 1
"3037" 2 8 29 8 1 798 1 1 1
"3038" 2 8 30 7 1 648 0 0 1
"3039" 2 8 31 2 1 569 1 1 1
"3040" 2 8 32 5 1 1045 0 0 1
"3041" 2 8 33 5 1 570 0 0 1
"3042" 2 8 34 1 1 514 0 0 1
"3043" 2 8 35 6 1 450 1 1 1
"3044" 2 8 36 8 1 469 1 1 1
"3045" 2 8 37 2 1 568 1 1 1
"3046" 2 8 38 7 1 1081 0 0 1
"3047" 2 8 39 3 1 411 0 0 1
"3048" 2 8 40 4 1 422 1 1 1
"3049" 2 8 41 1 1 716 0 0 1
"3050" 2 8 42 4 1 471 1 1 1
"3051" 2 8 43 8 1 621 1 1 1
"3052" 2 8 44 6 1 511 1 1 1
"3053" 2 8 45 3 1 596 0 0 1
"3054" 2 8 46 2 1 643 1 1 1
"3055" 2 8 47 7 1 486 0 0 1
"3056" 2 8 48 5 1 494 0 0 1
"3057" 2 8 49 1 1 508 0 0 1
"3058" 2 8 50 6 1 429 1 1 1
"3059" 2 8 51 7 1 845 0 0 1
"3060" 2 8 52 8 1 847 1 1 1
"3061" 2 8 53 5 1 620 0 0 1
"3062" 2 8 54 3 1 449 0 0 1
"3063" 2 8 55 2 1 587 1 1 1
"3064" 2 8 56 4 1 493 1 1 1
"3065" 2 8 57 6 1 555 1 1 1
"3066" 2 8 58 7 1 642 0 0 1
"3067" 2 8 59 3 1 454 0 0 1
"3068" 2 8 60 2 1 575 1 1 1
"3069" 2 8 61 8 1 438 1 1 1
"3070" 2 8 62 1 1 702 0 0 1
"3071" 2 8 63 5 1 430 0 0 1
"3072" 2 8 64 4 1 466 1 1 1
"3073" 2 9 1 5 0 1590 0 1 1
"3074" 2 9 2 7 1 3078 0 0 1
"3075" 2 9 3 3 0 1550 0 1 1
"3076" 2 9 4 4 1 4829 1 1 1
"3077" 2 9 5 2 1 1817 1 1 1
"3078" 2 9 6 1 1 1218 0 0 1
"3079" 2 9 7 6 1 1985 1 1 1
"3080" 2 9 8 8 1 4292 1 1 1
"3081" 2 9 9 2 0 1791 1 0 1
"3082" 2 9 10 8 1 1269 1 1 1
"3083" 2 9 11 5 1 891 0 0 1
"3084" 2 9 12 6 1 555 1 1 1
"3085" 2 9 13 4 1 1041 1 1 1
"3086" 2 9 14 1 1 1876 0 0 1
"3087" 2 9 15 3 1 865 0 0 1
"3088" 2 9 16 7 0 2010 0 1 1
"3089" 2 9 17 2 1 1176 1 1 1
"3090" 2 9 18 4 1 1043 1 1 1
"3091" 2 9 19 7 1 1074 0 0 1
"3092" 2 9 20 3 1 1103 0 0 1
"3093" 2 9 21 6 1 666 1 1 1
"3094" 2 9 22 1 0 1897 0 1 1
"3095" 2 9 23 5 1 915 0 0 1
"3096" 2 9 24 8 1 694 1 1 1
"3097" 2 9 25 1 1 2127 0 0 1
"3098" 2 9 26 6 1 709 1 1 1
"3099" 2 9 27 3 1 4237 0 0 1
"3100" 2 9 28 4 1 940 1 1 1
"3101" 2 9 29 8 1 1878 1 1 1
"3102" 2 9 30 7 1 1311 0 0 1
"3103" 2 9 31 2 1 650 1 1 1
"3104" 2 9 32 5 1 966 0 0 1
"3105" 2 9 33 5 1 537 0 0 1
"3106" 2 9 34 1 1 1000 0 0 1
"3107" 2 9 35 6 1 435 1 1 1
"3108" 2 9 36 8 1 760 1 1 1
"3109" 2 9 37 2 1 700 1 1 1
"3110" 2 9 38 7 1 1468 0 0 1
"3111" 2 9 39 3 1 1131 0 0 1
"3112" 2 9 40 4 1 487 1 1 1
"3113" 2 9 41 1 1 3162 0 0 1
"3114" 2 9 42 4 1 456 1 1 1
"3115" 2 9 43 8 1 1026 1 1 1
"3116" 2 9 44 6 1 721 1 1 1
"3117" 2 9 45 3 1 2609 0 0 1
"3118" 2 9 46 2 1 686 1 1 1
"3119" 2 9 47 7 1 607 0 0 1
"3120" 2 9 48 5 1 614 0 0 1
"3121" 2 9 49 1 1 461 0 0 1
"3122" 2 9 50 6 1 566 1 1 1
"3123" 2 9 51 7 1 1319 0 0 1
"3124" 2 9 52 8 1 725 1 1 1
"3125" 2 9 53 5 1 2056 0 0 1
"3126" 2 9 54 3 1 745 0 0 1
"3127" 2 9 55 2 1 801 1 1 1
"3128" 2 9 56 4 1 597 1 1 1
"3129" 2 9 57 6 1 993 1 1 1
"3130" 2 9 58 7 1 1471 0 0 1
"3131" 2 9 59 3 1 908 0 0 1
"3132" 2 9 60 2 1 733 1 1 1
"3133" 2 9 61 8 1 2086 1 1 1
"3134" 2 9 62 1 1 1073 0 0 1
"3135" 2 9 63 5 1 626 0 0 1
"3136" 2 9 64 4 1 719 1 1 1
"3137" 2 10 1 5 0 755 0 1 1
"3138" 2 10 2 7 1 673 0 0 1
"3139" 2 10 3 3 0 537 0 1 1
"3140" 2 10 4 4 0 612 1 0 1
"3141" 2 10 5 2 0 520 1 0 1
"3142" 2 10 6 1 0 665 0 1 1
"3143" 2 10 7 6 1 1569 1 1 1
"3144" 2 10 8 8 1 769 1 1 1
"3145" 2 10 9 2 0 691 1 0 1
"3146" 2 10 10 8 1 590 1 1 1
"3147" 2 10 11 5 1 686 0 0 1
"3148" 2 10 12 6 1 500 1 1 1
"3149" 2 10 13 4 1 576 1 1 1
"3150" 2 10 14 1 1 750 0 0 1
"3151" 2 10 15 3 1 537 0 0 1
"3152" 2 10 16 7 1 911 0 0 1
"3153" 2 10 17 2 1 626 1 1 1
"3154" 2 10 18 4 1 570 1 1 1
"3155" 2 10 19 7 1 530 0 0 1
"3156" 2 10 20 3 0 642 0 1 1
"3157" 2 10 21 6 1 597 1 1 1
"3158" 2 10 22 1 1 612 0 0 1
"3159" 2 10 23 5 1 432 0 0 1
"3160" 2 10 24 8 1 698 1 1 1
"3161" 2 10 25 1 1 747 0 0 1
"3162" 2 10 26 6 1 649 1 1 1
"3163" 2 10 27 3 1 489 0 0 1
"3164" 2 10 28 4 1 841 1 1 1
"3165" 2 10 29 8 1 695 1 1 1
"3166" 2 10 30 7 1 531 0 0 1
"3167" 2 10 31 2 1 613 1 1 1
"3168" 2 10 32 5 1 434 0 0 1
"3169" 2 10 33 5 1 583 0 0 1
"3170" 2 10 34 1 1 793 0 0 1
"3171" 2 10 35 6 1 371 1 1 1
"3172" 2 10 36 8 1 580 1 1 1
"3173" 2 10 37 2 1 961 1 1 1
"3174" 2 10 38 7 1 624 0 0 1
"3175" 2 10 39 3 1 671 0 0 1
"3176" 2 10 40 4 1 583 1 1 1
"3177" 2 10 41 1 1 930 0 0 1
"3178" 2 10 42 4 1 648 1 1 1
"3179" 2 10 43 8 1 636 1 1 1
"3180" 2 10 44 6 1 583 1 1 1
"3181" 2 10 45 3 1 490 0 0 1
"3182" 2 10 46 2 1 593 1 1 1
"3183" 2 10 47 7 1 760 0 0 1
"3184" 2 10 48 5 1 1059 0 0 1
"3185" 2 10 49 1 1 649 0 0 1
"3186" 2 10 50 6 1 725 1 1 1
"3187" 2 10 51 7 1 933 0 0 1
"3188" 2 10 52 8 1 578 1 1 1
"3189" 2 10 53 5 1 732 0 0 1
"3190" 2 10 54 3 1 438 0 0 1
"3191" 2 10 55 2 1 610 1 1 1
"3192" 2 10 56 4 1 721 1 1 1
"3193" 2 10 57 6 1 625 1 1 1
"3194" 2 10 58 7 1 822 0 0 1
"3195" 2 10 59 3 1 545 0 0 1
"3196" 2 10 60 2 1 604 1 1 1
"3197" 2 10 61 8 1 670 1 1 1
"3198" 2 10 62 1 1 621 0 0 1
"3199" 2 10 63 5 1 662 0 0 1
"3200" 2 10 64 4 1 637 1 1 1
"3201" 2 11 1 5 0 1279 0 1 1
"3202" 2 11 2 7 1 1596 0 0 1
"3203" 2 11 3 3 1 641 0 0 1
"3204" 2 11 4 4 1 880 1 1 1
"3205" 2 11 5 2 1 928 1 1 1
"3206" 2 11 6 1 1 618 0 0 1
"3207" 2 11 7 6 1 501 1 1 1
"3208" 2 11 8 8 0 1036 1 0 1
"3209" 2 11 9 2 1 609 1 1 1
"3210" 2 11 10 8 1 662 1 1 1
"3211" 2 11 11 5 1 711 0 0 1
"3212" 2 11 12 6 1 718 1 1 1
"3213" 2 11 13 4 1 902 1 1 1
"3214" 2 11 14 1 1 510 0 0 1
"3215" 2 11 15 3 1 469 0 0 1
"3216" 2 11 16 7 1 640 0 0 1
"3217" 2 11 17 2 1 526 1 1 1
"3218" 2 11 18 4 1 511 1 1 1
"3219" 2 11 19 7 1 597 0 0 1
"3220" 2 11 20 3 1 423 0 0 1
"3221" 2 11 21 6 1 526 1 1 1
"3222" 2 11 22 1 1 514 0 0 1
"3223" 2 11 23 5 1 549 0 0 1
"3224" 2 11 24 8 1 482 1 1 1
"3225" 2 11 25 1 1 495 0 0 1
"3226" 2 11 26 6 1 555 1 1 1
"3227" 2 11 27 3 1 445 0 0 1
"3228" 2 11 28 4 1 391 1 1 1
"3229" 2 11 29 8 1 997 1 1 1
"3230" 2 11 30 7 1 500 0 0 1
"3231" 2 11 31 2 0 1130 1 0 1
"3232" 2 11 32 5 1 769 0 0 1
"3233" 2 11 33 5 1 516 0 0 1
"3234" 2 11 34 1 1 404 0 0 1
"3235" 2 11 35 6 1 531 1 1 1
"3236" 2 11 36 8 1 1042 1 1 1
"3237" 2 11 37 2 1 989 1 1 1
"3238" 2 11 38 7 1 614 0 0 1
"3239" 2 11 39 3 1 747 0 0 1
"3240" 2 11 40 4 1 659 1 1 1
"3241" 2 11 41 1 1 1445 0 0 1
"3242" 2 11 42 4 1 552 1 1 1
"3243" 2 11 43 8 1 756 1 1 1
"3244" 2 11 44 6 0 424 1 0 1
"3245" 2 11 45 3 1 545 0 0 1
"3246" 2 11 46 2 1 1159 1 1 1
"3247" 2 11 47 7 0 1007 0 1 1
"3248" 2 11 48 5 1 723 0 0 1
"3249" 2 11 49 1 1 2909 0 0 1
"3250" 2 11 50 6 1 1414 1 1 1
"3251" 2 11 51 7 0 2026 0 1 1
"3252" 2 11 52 8 1 750 1 1 1
"3253" 2 11 53 5 1 516 0 0 1
"3254" 2 11 54 3 1 974 0 0 1
"3255" 2 11 55 2 1 1045 1 1 1
"3256" 2 11 56 4 1 583 1 1 1
"3257" 2 11 57 6 1 554 1 1 1
"3258" 2 11 58 7 1 593 0 0 1
"3259" 2 11 59 3 1 582 0 0 1
"3260" 2 11 60 2 1 735 1 1 1
"3261" 2 11 61 8 1 478 1 1 1
"3262" 2 11 62 1 1 811 0 0 1
"3263" 2 11 63 5 1 538 0 0 1
"3264" 2 11 64 4 1 473 1 1 1
"3265" 2 12 1 5 0 4419 0 1 1
"3266" 2 12 2 7 0 1460 0 1 1
"3267" 2 12 3 3 1 1321 0 0 1
"3268" 2 12 4 4 1 794 1 1 1
"3269" 2 12 5 2 1 1684 1 1 1
"3270" 2 12 6 1 1 974 0 0 1
"3271" 2 12 7 6 0 2430 1 0 1
"3272" 2 12 8 8 1 1435 1 1 1
"3273" 2 12 9 2 1 1096 1 1 1
"3274" 2 12 10 8 1 1117 1 1 1
"3275" 2 12 11 5 1 973 0 0 1
"3276" 2 12 12 6 1 759 1 1 1
"3277" 2 12 13 4 1 800 1 1 1
"3278" 2 12 14 1 1 988 0 0 1
"3279" 2 12 15 3 1 848 0 0 1
"3280" 2 12 16 7 1 613 0 0 1
"3281" 2 12 17 2 1 1484 1 1 1
"3282" 2 12 18 4 1 2099 1 1 1
"3283" 2 12 19 7 1 642 0 0 1
"3284" 2 12 20 3 1 707 0 0 1
"3285" 2 12 21 6 1 684 1 1 1
"3286" 2 12 22 1 1 1150 0 0 1
"3287" 2 12 23 5 1 474 0 0 1
"3288" 2 12 24 8 1 906 1 1 1
"3289" 2 12 25 1 0 1757 0 1 1
"3290" 2 12 26 6 1 811 1 1 1
"3291" 2 12 27 3 1 1241 0 0 1
"3292" 2 12 28 4 1 659 1 1 1
"3293" 2 12 29 8 1 1993 1 1 1
"3294" 2 12 30 7 1 903 0 0 1
"3295" 2 12 31 2 1 1422 1 1 1
"3296" 2 12 32 5 1 649 0 0 1
"3297" 2 12 33 5 1 699 0 0 1
"3298" 2 12 34 1 1 780 0 0 1
"3299" 2 12 35 6 1 638 1 1 1
"3300" 2 12 36 8 1 1110 1 1 1
"3301" 2 12 37 2 1 757 1 1 1
"3302" 2 12 38 7 1 1701 0 0 1
"3303" 2 12 39 3 1 2587 0 0 1
"3304" 2 12 40 4 1 636 1 1 1
"3305" 2 12 41 1 1 713 0 0 1
"3306" 2 12 42 4 1 659 1 1 1
"3307" 2 12 43 8 1 1037 1 1 1
"3308" 2 12 44 6 1 704 1 1 1
"3309" 2 12 45 3 1 594 0 0 1
"3310" 2 12 46 2 1 1208 1 1 1
"3311" 2 12 47 7 1 2704 0 0 1
"3312" 2 12 48 5 1 750 0 0 1
"3313" 2 12 49 1 1 1042 0 0 1
"3314" 2 12 50 6 1 514 1 1 1
"3315" 2 12 51 7 1 1050 0 0 1
"3316" 2 12 52 8 1 998 1 1 1
"3317" 2 12 53 5 1 555 0 0 1
"3318" 2 12 54 3 1 622 0 0 1
"3319" 2 12 55 2 1 916 1 1 1
"3320" 2 12 56 4 1 689 1 1 1
"3321" 2 12 57 6 1 661 1 1 1
"3322" 2 12 58 7 1 950 0 0 1
"3323" 2 12 59 3 1 486 0 0 1
"3324" 2 12 60 2 1 1538 1 1 1
"3325" 2 12 61 8 1 629 1 1 1
"3326" 2 12 62 1 1 881 0 0 1
"3327" 2 12 63 5 1 1183 0 0 1
"3328" 2 12 64 4 1 746 1 1 1
"3329" 2 13 1 5 0 1112 0 1 1
"3330" 2 13 2 7 1 1797 0 0 1
"3331" 2 13 3 3 1 1893 0 0 1
"3332" 2 13 4 4 1 2002 1 1 1
"3333" 2 13 5 2 0 1892 1 0 1
"3334" 2 13 6 1 1 3412 0 0 1
"3335" 2 13 7 6 1 1223 1 1 1
"3336" 2 13 8 8 0 878 1 0 1
"3337" 2 13 9 2 0 3148 1 0 1
"3338" 2 13 10 8 1 3734 1 1 1
"3339" 2 13 11 5 0 1570 0 1 1
"3340" 2 13 12 6 1 2186 1 1 1
"3341" 2 13 13 4 1 914 1 1 1
"3342" 2 13 14 1 1 1525 0 0 1
"3343" 2 13 15 3 0 883 0 1 1
"3344" 2 13 16 7 0 2085 0 1 1
"3345" 2 13 17 2 1 1028 1 1 1
"3346" 2 13 18 4 1 1008 1 1 1
"3347" 2 13 19 7 1 1265 0 0 1
"3348" 2 13 20 3 0 2677 0 1 1
"3349" 2 13 21 6 1 853 1 1 1
"3350" 2 13 22 1 1 1526 0 0 1
"3351" 2 13 23 5 1 1013 0 0 1
"3352" 2 13 24 8 1 3077 1 1 1
"3353" 2 13 25 1 1 1198 0 0 1
"3354" 2 13 26 6 1 1389 1 1 1
"3355" 2 13 27 3 1 1766 0 0 1
"3356" 2 13 28 4 1 765 1 1 1
"3357" 2 13 29 8 1 2520 1 1 1
"3358" 2 13 30 7 1 1143 0 0 1
"3359" 2 13 31 2 1 2591 1 1 1
"3360" 2 13 32 5 1 1203 0 0 1
"3361" 2 13 33 5 1 762 0 0 1
"3362" 2 13 34 1 1 1010 0 0 1
"3363" 2 13 35 6 1 756 1 1 1
"3364" 2 13 36 8 1 1194 1 1 1
"3365" 2 13 37 2 1 874 1 1 1
"3366" 2 13 38 7 1 948 0 0 1
"3367" 2 13 39 3 1 1319 0 0 1
"3368" 2 13 40 4 1 692 1 1 1
"3369" 2 13 41 1 1 1033 0 0 1
"3370" 2 13 42 4 1 623 1 1 1
"3371" 2 13 43 8 0 927 1 0 1
"3372" 2 13 44 6 1 514 1 1 1
"3373" 2 13 45 3 1 756 0 0 1
"3374" 2 13 46 2 1 1215 1 1 1
"3375" 2 13 47 7 1 1140 0 0 1
"3376" 2 13 48 5 1 988 0 0 1
"3377" 2 13 49 1 1 847 0 0 1
"3378" 2 13 50 6 1 1122 1 1 1
"3379" 2 13 51 7 1 1185 0 0 1
"3380" 2 13 52 8 1 1959 1 1 1
"3381" 2 13 53 5 1 941 0 0 1
"3382" 2 13 54 3 1 872 0 0 1
"3383" 2 13 55 2 0 998 1 0 1
"3384" 2 13 56 4 1 882 1 1 1
"3385" 2 13 57 6 1 829 1 1 1
"3386" 2 13 58 7 1 1245 0 0 1
"3387" 2 13 59 3 1 928 0 0 1
"3388" 2 13 60 2 1 1470 1 1 1
"3389" 2 13 61 8 1 909 1 1 1
"3390" 2 13 62 1 1 904 0 0 1
"3391" 2 13 63 5 1 894 0 0 1
"3392" 2 13 64 4 1 815 1 1 1
"3393" 2 14 1 5 0 3759 0 1 1
"3394" 2 14 2 7 1 2229 0 0 1
"3395" 2 14 3 3 1 1084 0 0 1
"3396" 2 14 4 4 1 2691 1 1 1
"3397" 2 14 5 2 1 1630 1 1 1
"3398" 2 14 6 1 1 1640 0 0 1
"3399" 2 14 7 6 1 1827 1 1 1
"3400" 2 14 8 8 1 1110 1 1 1
"3401" 2 14 9 2 0 1018 1 0 1
"3402" 2 14 10 8 1 2065 1 1 1
"3403" 2 14 11 5 1 1501 0 0 1
"3404" 2 14 12 6 0 3829 1 0 1
"3405" 2 14 13 4 1 1223 1 1 1
"3406" 2 14 14 1 1 658 0 0 1
"3407" 2 14 15 3 1 894 0 0 1
"3408" 2 14 16 7 0 869 0 1 1
"3409" 2 14 17 2 0 936 1 0 1
"3410" 2 14 18 4 1 1503 1 1 1
"3411" 2 14 19 7 0 2548 0 1 1
"3412" 2 14 20 3 1 820 0 0 1
"3413" 2 14 21 6 0 2344 1 0 1
"3414" 2 14 22 1 1 1767 0 0 1
"3415" 2 14 23 5 0 2011 0 1 1
"3416" 2 14 24 8 1 4055 1 1 1
"3417" 2 14 25 1 1 1007 0 0 1
"3418" 2 14 26 6 0 3768 1 0 1
"3419" 2 14 27 3 1 1665 0 0 1
"3420" 2 14 28 4 1 1795 1 1 1
"3421" 2 14 29 8 1 1034 1 1 1
"3422" 2 14 30 7 0 1134 0 1 1
"3423" 2 14 31 2 0 2240 1 0 1
"3424" 2 14 32 5 1 947 0 0 1
"3425" 2 14 33 5 0 3866 0 1 1
"3426" 2 14 34 1 1 4591 0 0 1
"3427" 2 14 35 6 1 1526 1 1 1
"3428" 2 14 36 8 1 766 1 1 1
"3429" 2 14 37 2 0 1137 1 0 1
"3430" 2 14 38 7 0 1416 0 1 1
"3431" 2 14 39 3 1 1263 0 0 1
"3432" 2 14 40 4 1 1829 1 1 1
"3433" 2 14 41 1 0 1886 0 1 1
"3434" 2 14 42 4 1 793 1 1 1
"3435" 2 14 43 8 1 770 1 1 1
"3436" 2 14 44 6 1 738 1 1 1
"3437" 2 14 45 3 0 2885 0 1 1
"3438" 2 14 46 2 1 795 1 1 1
"3439" 2 14 47 7 1 2822 0 0 1
"3440" 2 14 48 5 1 1081 0 0 1
"3441" 2 14 49 1 1 669 0 0 1
"3442" 2 14 50 6 1 999 1 1 1
"3443" 2 14 51 7 0 2802 0 1 1
"3444" 2 14 52 8 1 771 1 1 1
"3445" 2 14 53 5 0 3648 0 1 1
"3446" 2 14 54 3 1 1169 0 0 1
"3447" 2 14 55 2 1 1866 1 1 1
"3448" 2 14 56 4 1 749 1 1 1
"3449" 2 14 57 6 1 816 1 1 1
"3450" 2 14 58 7 0 1996 0 1 1
"3451" 2 14 59 3 1 2367 0 0 1
"3452" 2 14 60 2 0 1017 1 0 1
"3453" 2 14 61 8 1 1549 1 1 1
"3454" 2 14 62 1 0 2324 0 1 1
"3455" 2 14 63 5 0 1861 0 1 1
"3456" 2 14 64 4 1 1082 1 1 1
"3457" 2 15 1 5 0 3353 0 1 1
"3458" 2 15 2 7 0 1746 0 1 1
"3459" 2 15 3 3 0 1447 0 1 1
"3460" 2 15 4 4 1 1156 1 1 1
"3461" 2 15 5 2 1 1048 1 1 1
"3462" 2 15 6 1 1 1036 0 0 1
"3463" 2 15 7 6 1 910 1 1 1
"3464" 2 15 8 8 1 1868 1 1 1
"3465" 2 15 9 2 1 897 1 1 1
"3466" 2 15 10 8 1 838 1 1 1
"3467" 2 15 11 5 1 953 0 0 1
"3468" 2 15 12 6 1 947 1 1 1
"3469" 2 15 13 4 1 890 1 1 1
"3470" 2 15 14 1 1 864 0 0 1
"3471" 2 15 15 3 1 753 0 0 1
"3472" 2 15 16 7 1 752 0 0 1
"3473" 2 15 17 2 1 825 1 1 1
"3474" 2 15 18 4 1 965 1 1 1
"3475" 2 15 19 7 0 1041 0 1 1
"3476" 2 15 20 3 1 844 0 0 1
"3477" 2 15 21 6 1 836 1 1 1
"3478" 2 15 22 1 1 841 0 0 1
"3479" 2 15 23 5 1 733 0 0 1
"3480" 2 15 24 8 1 766 1 1 1
"3481" 2 15 25 1 0 1763 0 1 1
"3482" 2 15 26 6 1 907 1 1 1
"3483" 2 15 27 3 1 861 0 0 1
"3484" 2 15 28 4 1 973 1 1 1
"3485" 2 15 29 8 1 1154 1 1 1
"3486" 2 15 30 7 1 927 0 0 1
"3487" 2 15 31 2 1 1480 1 1 1
"3488" 2 15 32 5 1 783 0 0 1
"3489" 2 15 33 5 1 761 0 0 1
"3490" 2 15 34 1 1 798 0 0 1
"3491" 2 15 35 6 1 764 1 1 1
"3492" 2 15 36 8 1 847 1 1 1
"3493" 2 15 37 2 1 900 1 1 1
"3494" 2 15 38 7 1 925 0 0 1
"3495" 2 15 39 3 1 830 0 0 1
"3496" 2 15 40 4 1 784 1 1 1
"3497" 2 15 41 1 1 783 0 0 1
"3498" 2 15 42 4 1 878 1 1 1
"3499" 2 15 43 8 1 1163 1 1 1
"3500" 2 15 44 6 1 832 1 1 1
"3501" 2 15 45 3 1 855 0 0 1
"3502" 2 15 46 2 1 1132 1 1 1
"3503" 2 15 47 7 1 1159 0 0 1
"3504" 2 15 48 5 1 815 0 0 1
"3505" 2 15 49 1 1 866 0 0 1
